Time (s),Accelerometer_X (m/s^2)_kalman,Accelerometer_Y (m/s^2)_kalman,Accelerometer_Z (m/s^2)_kalman,Gyroscope_X (rad/s)_kalman,Gyroscope_Y (rad/s)_kalman,Gyroscope_Z (rad/s)_kalman,Linear Accelerometer_X (m/s^2)_kalman,Linear Accelerometer_Y (m/s^2)_kalman,Linear Accelerometer_Z (m/s^2)_kalman,Magnetometer_X (µT)_kalman,Magnetometer_Y (µT)_kalman,Magnetometer_Z (µT)_kalman,Barometer_X (hPa)_kalman
121,0.476111920136592,9.7379608062,-0.6208459442486,0.0059954568223999,0.05058603921052,0.1485362063162379,0.43539423935998,-0.03181430275122,-0.2051080912356,5.88821861276,-2.1024633788680003,0.7218954468048,1021.969452
122,0.8317580534948428,9.699408909869476,-1.0449434798862414,0.003651136359543718,-0.007809102310653036,-0.004222828787948885,0.2089298129873643,-0.06107627083099569,-0.38686192093478255,5.695594362167736,-3.630973304156538,1.0455883264546033,1021.9554776043522
123,0.7551403188729051,9.739277227625804,-1.0100194614047378,0.0024329798571693694,-0.0022770925607889098,-0.004789964054068815,0.15398924601005773,-0.02802412648306548,-0.3414938679796203,5.836125887630408,-3.8211661289006376,1.1227037061852208,1021.9554047928635
124,0.7086020191234246,9.735276081496748,-1.0182665139682139,0.0010740489987926623,0.004915163058877147,-0.0036596909263715035,0.12060756473090486,-0.03132210800355482,-0.32917620891266136,5.976048763701496,-3.8603597066470696,1.24326213411024,1021.9550572115593
125,0.7356908397534525,9.728088626034738,-1.0334203684169927,0.00025460759153111447,0.0013864456654751555,-0.0016530648948607676,0.149487032970391,-0.042110570414874426,-0.32897402653034147,6.121104488343974,-4.005413407966245,0.947998412950998,1021.9548750028987
126,0.7113780850877022,9.730345199800704,-0.9302087163256811,-0.0010366828195415686,0.003481479773304683,-0.0014750890146599898,0.12034732391756134,-0.03363587626085693,-0.22275336552154906,7.7549708746009545,-4.859797486592228,1.3444671778680368,1021.9528029351404
127,0.750557580121263,9.73989184469619,-0.7766216038614837,-0.0005987585309635697,0.0004511529371006716,-0.001174027561556493,0.1625147483294591,-0.02638503926346496,-0.07410268755671559,5.971621856205105,-3.6337483579589818,1.4441888877123727,1021.9503286317141
128,0.7712696086308163,9.74316339276888,-0.7050981283466766,-0.00042523792435633303,-0.00414612081389748,0.0051048038610867555,0.1592170436147684,-0.02507876441755023,-0.008684891858524335,5.847394946317127,-3.809039679090234,1.0829618494996955,1021.9468641127413
129,0.7256212976010897,9.727555594220775,-0.3227421131119792,-0.05238890728768708,-0.02032055011308872,-0.019943969042972156,0.16230458557046706,-0.021845392349257295,0.10667990552416666,5.9524206427903215,-4.00752789670452,0.002009342863280139,1021.9443958703066
130,0.43034594844295754,9.71443735951684,-0.3730078419387814,0.04984837459340795,-0.06902992945258901,-0.016376668311270194,0.1976728612704271,-0.03286579376015117,0.21859872153159593,6.1863898471175816,-3.4856560303138875,-0.8387434915823189,1021.9431370559853
131,0.24402313571500722,9.66435317679846,-0.8485369316929514,0.027909586424226824,-0.0406810035900679,-0.0251142923262666,0.21017691856266477,-0.006380709142910321,0.19606009989619794,6.269521602866848,-3.1161353226085957,-1.308160980096066,1021.9435079467464
132,0.21478995008792662,9.613836085716677,-1.0157417402848137,0.08316089092348979,0.014314184952156535,-0.01807424297231304,0.2192746531219589,-0.019033684655811768,0.24189086441584343,6.278371628681832,-2.7708597949352867,-0.43032135070678634,1021.94408743054
133,0.1880286771500349,9.43722519498976,-1.809852314591767,0.07195349519293617,-0.02436030559045342,-0.0060076733756035654,0.2484183558176018,0.029884938418052544,0.3066898564557212,6.05630827655984,-1.804872488596424,0.9363414045066162,1021.947192250178
134,0.13372390607554985,9.318458561229953,-2.38755555238599,0.06691577183347358,0.04298202263371473,-0.02205235359689335,0.25031670893152974,0.10259967288521066,0.374978674447296,5.7770784085205005,-0.8879727158640035,2.2042987446396887,1021.9511474262016
135,0.4891977303278052,9.165895585440241,-2.9114245051365004,0.05081880615414279,0.16900246440224323,-0.012849645587498265,0.16628349549893884,0.12621306915085712,0.5168819686589573,4.5896327826093835,0.06324659305541636,4.411157405770524,1021.9548571737373
136,-0.01255595809943133,8.752726930532566,-1.336332014627933,-0.4115388758416236,0.15084277311990568,-0.22808486314225826,0.08845778581210363,0.143795612815063,0.6140338726294098,2.8043323057093015,0.29886549315778366,4.96745301576781,1021.9583884541479
137,-0.8285010267428162,7.21363180358713,1.3911493437058253,-0.24514484658065677,0.03109703287437958,-0.08155263731668921,0.0532848293611181,0.10638763593387546,0.5638717043539327,2.476142796766768,-1.3258122509756367,1.7141999073663539,1021.9622227677463
138,0.8801326775133606,6.434931958130672,1.4242136810816373,-0.019386062743910887,-0.3919849190426879,0.1620174969272351,-0.0690564145614624,0.11462795883693984,0.22923663823936213,-2.308930632022689,-5.357313987810895,-0.5152440580773097,1021.9665669011528
139,3.0156026578002955,5.3427602919783,0.4227376262808964,-0.26747762087414595,-0.33285270860510247,0.15789786928403474,-0.10638893541782918,-0.06155251328602156,0.01080870832450781,-8.977540270917823,-10.275819567906684,0.500981803018349,1021.9722314521644
140,4.512814519594603,4.687805870757473,1.3207635110090585,-0.21424944716608477,-0.18311077322878588,0.11580394636777172,-0.08168497491052326,-0.033171138023519786,-0.015444503717123297,-14.062419221281488,-17.191464570585424,-1.7198316874898865,1021.9769837189934
141,4.26197648508232,4.479924663419037,2.7320057176358836,-0.20532591495330588,0.14633578116988616,-0.041150916010397665,0.2197531004065292,-0.17171022974251804,-0.13700903689134677,-12.521042876637212,-14.632176133045359,-3.1063890277134223,1021.9811942130082
142,3.2891716529492667,4.530150880502813,4.32029630587744,-0.05950771628717805,0.06776548603295895,-0.04238263557288871,0.27636709747488736,-0.0850891703446838,-0.08940430906834582,-9.342981312501774,-10.416004728510723,-4.599655499149579,1021.9860396978372
143,3.3063376981477792,4.981852990427699,4.964504169820602,-0.04597667192464233,0.024448135285544154,0.021048658346727256,0.23280246445423164,0.06492119453329886,-0.17317461924922978,-8.186391859951986,-8.87641607015879,-5.64570290210152,1021.9923587475453
144,3.1159632845782146,5.198243390423198,5.56842437357631,-0.0596967019900788,0.004131962029210529,0.035769596179331106,0.1465358898530458,0.06957658838236448,-0.21568971951808263,-7.35558926771904,-7.6718404257232455,-5.978443262990479,1021.9983308961567
145,4.353143888667299,4.513601676143914,5.481965560849147,-0.11799682026921322,-0.17884162166777035,0.08791395673882894,0.22147772542011235,0.06349094536227158,-0.23899574082633596,-10.536123555234324,-8.905901716630787,-6.953039687097018,1022.0032461494814
146,5.692553903841567,3.9775460542890526,4.493316596450303,-0.0827417480960259,-0.21072069644895422,0.042611551891939436,0.22138529758601075,0.18342480377877507,-0.4047151529658535,-15.452893516182748,-13.19847044064971,-5.245883317405872,1022.0068335146609
147,6.592393326100417,3.9223068783479538,3.4506068208382477,-0.0642208388084955,-0.0977659971803049,0.019900048999768747,0.10123754038987756,0.31519079428140945,-0.313665266320564,-20.657723822841383,-17.911939529674683,-3.801716108306329,1022.0091013374333
148,7.2865248452477225,3.7623349470585703,2.8501852066438045,-0.032180278395024985,-0.16212659720913689,0.014095342778951078,0.013362937700365923,0.347662645059454,-0.10714286816591712,-25.024096325059784,-21.121267934301706,-3.698149483129164,1022.0093549229812
149,7.782000372033781,3.543071034261091,2.5075363658336958,-0.027171073174239575,-0.12524428938130527,0.030324846909677534,-0.008725994225943584,0.29653194255904664,-0.026058558800522838,-28.495730022408395,-22.54947403223419,-5.84452699263413,1022.0063454034326
150,7.949143135244983,3.2241165629478266,2.8612652439387176,-0.036185873292248844,0.04755823972286344,0.015042863479884063,-0.03267402657821334,0.21005329419744503,-0.03191515345555312,-29.6971959287092,-23.18108885108004,-11.215762338378946,1022.0021703002297
151,7.9192313797061455,2.90671597474281,3.558714080473103,-0.0317043002218118,0.046334127385652464,0.01175834362923462,-0.021105350259053735,0.16320806039182834,0.015598313599887559,-29.52726717070115,-23.62733320255647,-16.781820415494153,1021.9975256934583
152,7.907754559116584,2.7451962651626687,4.06498562104074,-0.023420224706489703,0.033636682149779856,0.00806052537255503,-0.03652520331340205,0.19431944531776973,0.0174834671074561,-29.33726816780912,-23.985306647550697,-20.884053215104412,1021.9925384224061
153,7.902606949700701,2.6457888426986504,4.4347290112022835,-0.01847214162327857,0.02253813140810792,0.005609406716856862,-0.05901856202378078,0.22665006792775455,0.009213366613693022,-29.18269505763648,-24.24726444865759,-23.89041066848338,1021.9864662772472
154,7.901286840447181,2.5834212125397853,4.696688699017222,-0.014255005603658439,0.01809663867993303,0.0034069889632925973,-0.06200725794293727,0.2461709807583837,0.014048236312995918,-29.139454869775918,-24.480578351101006,-26.039711126769152,1021.9789428921423
155,7.838973689339189,2.5442652940863693,4.939370418597187,-0.00856456549969931,0.015617077020772242,0.0038385455107540307,-0.08287877959331118,0.2731217236043955,0.046745735491934205,-29.033883055092367,-24.652012523511278,-27.694637855590162,1021.9711848453353
156,7.8251968375734515,2.5015669822826863,5.077530905943383,-0.0071014216440887235,0.010075007591734856,0.0021395136117249784,-0.06793485358047373,0.2794630707780827,0.035313722578820976,-28.946637029026153,-24.745422497737465,-28.97419758893528,1021.9621011546452
157,7.827321407637916,2.441691954851375,5.196687925709177,-0.005847723140407043,0.009967642572853678,0.001408713739168417,-0.05750087367245308,0.24841377635419362,0.038113931456396584,-28.83533440171623,-24.81350276667923,-29.896631937596506,1021.9539051137084
158,7.824762566409314,2.340647939535015,5.291289692137094,-0.00468637999730125,0.007022918340818445,0.0008121898730531641,-0.02671002874668288,0.16293117425506878,0.04774314852045646,-28.728473338760402,-24.8279526307467,-30.496833274859547,1021.9471811650309
159,7.815550419515944,2.2154813571085485,5.373717198148442,-0.0029663518789338813,0.005631475815282799,0.0008729526554992369,-0.006752443039918132,0.05987656792474329,0.06887145739224401,-28.70271453701361,-24.832331029632105,-30.953741458717747,1021.9415110818715
160,7.8129837921257215,2.1284559834635766,5.412903174297886,-0.003152557078951944,0.008272585751355381,0.001078151022290543,0.021252464032944167,-0.009178957345898048,0.0697243565779182,-28.487076344581823,-24.78491635382441,-31.215020637214025,1021.9373728068997
161,7.836439693010812,2.0621680554319184,5.449961685160694,-0.0034398500708932673,0.0049836712494658614,-0.00020855283938314207,0.02628220813995741,-0.05579166930556686,0.05071446695632936,-28.4775726969178,-24.80145802904516,-31.557628426289817,1021.9341671854568
162,7.805713438476987,2.0173509286044413,5.527974306508673,-0.001526917782999023,0.0041285967750218575,0.0015196339826188607,0.009930993968384934,-0.07729239105202046,0.08340018446918887,-28.348114064601006,-24.82093481210152,-31.769825229134184,1021.9308380003555
163,7.795183708074732,2.000363432728855,5.582404903427234,0.0004538828655290298,0.0028171658330212184,0.002177026553664691,-0.016428258552985103,-0.07385147096967452,0.09255017481082818,-28.309167474723175,-24.818401230397363,-31.98376428837577,1021.9281196884556
164,7.812164219407423,1.9919476803654221,5.600470618373611,0.0008247582026482151,0.0002712337197577821,0.0012061315436591473,-0.005108468757063613,-0.07846133511053678,0.08663334652838615,-28.317230290777523,-24.816715647554965,-32.120122287360616,1021.9255792236048
165,7.8210520583298875,1.9869070633483201,5.581459585070146,-7.022095265591711e-05,-8.124012422323923e-05,0.00033512309875369077,0.016504478016008226,-0.07741116231322244,0.06353504301195131,-28.35978845032489,-24.79733759222194,-32.1756379780472,1021.9216640593742
166,7.871239835047175,1.990345210171549,5.562749111118987,-0.0022575061960955116,-0.0005806460678544707,-0.0014214789086536938,0.0009073323131520931,-0.08229097482736766,0.016092883920121787,-28.413478469160573,-24.78386316596017,-32.19908079596295,1021.9176730256158
167,7.864206042434174,1.9843844101784873,5.584891560644995,-0.0007269810367507748,-0.0007066506728403928,-0.0011404960988696733,-0.0028066439461218486,-0.07508620416416723,0.0399139376148507,-28.497931698152453,-24.833890681128324,-32.17662398240775,1021.9147601944192
168,7.821980703212142,1.9316579951788035,5.598788295743652,-0.0004472863665745727,0.00037415121658970936,0.0023483724906144146,-0.013859797565945232,-0.11995957390101916,0.06399690237116953,-28.6369924532442,-24.88227167129629,-32.15702005777256,1021.9126342826644
169,7.860784783095499,1.8385933569826682,5.623484050439797,0.0005532026063919063,0.0004977133550198411,0.00031879630353606834,0.032265909160846,-0.1953050369832398,0.08193085938775761,-28.554001768549345,-24.865457532768026,-32.152346776691026,1021.9129375917267
170,7.882556953406247,1.8106684490579779,5.5822029959879,-0.0019171278571329404,0.00037614791682156996,-0.0008442069164772356,0.03876523037258852,-0.21542590351690583,0.044846754240007024,-28.577183258606418,-24.83028275017835,-32.1070567039827,1021.9148698592516
171,7.882915295817157,1.86142527628831,5.583807831973783,-0.001992391796622812,0.002109140815947379,-0.0013573746011635453,0.02207746919821936,-0.15786391324941262,0.034649747264298716,-28.57502140478639,-24.821855640115647,-32.14720316303195,1021.9191243173002
172,7.849055536116181,1.894406387676699,5.6200744815848696,-0.0004396078135605534,0.0028640993234603208,-0.000567625177952643,0.008420180043966061,-0.11272382906560384,0.05720061731431671,-28.500050890585584,-24.8136673699898,-32.23960673449671,1021.9258365328197
173,7.833079104631441,1.9275116940239003,5.629622347632133,-0.0002459726886760334,0.0009545944382595253,-5.5267961753278265e-05,0.0003372814644167898,-0.0690918400357747,0.05281644121899713,-28.44596152389004,-24.836139667507002,-32.30661184416357,1021.931456718707
174,7.819331326763785,1.9529383387153953,5.647045984723555,0.001425495559881777,-0.00028820905032131547,0.0012152662796773477,-0.018652871055101813,-0.03256821343726052,0.0628031873318739,-28.433668029351626,-24.844972965786035,-32.36788987429294,1021.9355585764648
175,7.82962240763032,1.923257348984094,5.62045629052772,5.7613021693284734e-05,-0.0014886043403876076,0.0013492023323827312,-0.008377964519428578,-0.06233914573536525,0.04080277929293473,-28.4181118290357,-24.82571960716521,-32.321823697462605,1021.9375216459209
176,7.845562464632562,1.9129639783794408,5.617819351971869,-0.00013617505939774068,-0.00018550558828663152,-0.00047003596301558453,0.006033374856695884,-0.06466007611994404,0.04339785157809099,-28.469108990209847,-24.81907762035621,-32.25134004286083,1021.938810116552
177,7.847845816053251,1.8383583059820352,5.626754345490174,0.000501108808403388,0.0008778905016672998,0.0002973638420533638,0.0275255824291602,-0.14580689092045168,0.059081154485145754,-28.411402326061275,-24.846069472725404,-32.24254050444538,1021.9388230525628
178,7.845951234336578,1.7679142759106297,5.620218474656657,-0.0005537664750220874,0.0005760256496602323,0.0007990809303643467,0.05551708176500522,-0.1996873240378913,0.061993725457244624,-28.280548470384463,-24.833738982715627,-32.17284281320824,1021.9388324938301
179,7.854863532222008,1.710750664336821,5.625624464874182,-0.0006878695588557972,6.135408667512889e-05,0.0003296552005038438,0.06714473332954515,-0.2344156303181288,0.06159050695783922,-28.092000667916007,-24.73542838485328,-32.17891783809518,1021.9402614867796
180,7.857083165251114,1.6455470340812481,5.651262462784839,0.0005506045028648994,0.0007415135804810866,0.0005994983295655601,0.07120388062287811,-0.28143655328218964,0.08308227882012931,-28.020446647838465,-24.72701376978955,-32.209450601355464,1021.9413044284071
181,7.718707016056912,1.7444007345577481,5.829982950329854,0.015426121047925328,0.0063324559793041316,0.009558758025262449,-0.08693853388385614,-0.18371908975902787,0.23267509828243904,-27.94587409117577,-24.802472648893087,-32.2772164007125,1021.9423130759653
182,7.469961643598811,1.8839366062132958,6.141547972961451,0.0445801511983895,0.010326419735179834,0.03073274560705561,-0.34733387694793005,-0.044486357274953425,0.5309228398657639,-27.654884336572035,-24.9443077209164,-32.71986030470178,1021.9437705482059
183,7.23306151116675,1.9802523284445244,6.421138951781869,0.07033547423931939,0.017694111417014192,0.04948108170706119,-0.5756133400090778,0.05190661606552399,0.7994629893956406,-26.986450579250675,-25.37402580773191,-33.48834439559815,1021.9456278591393
184,7.263060829954829,1.945426972492042,6.404824434546965,0.07172758199826401,0.015470143587559307,0.051574665781891224,-0.5407071098778264,0.015454543370678343,0.7760113589424031,-26.11853127847592,-25.91614165539569,-34.30010454124277,1021.9477769898591
185,7.42025111237725,1.9474754921831252,6.192299448512216,0.05411225534478488,0.013448334102991087,0.03864431231982146,-0.38706203103778214,0.016391557155562328,0.5571452042791567,-25.391999348975713,-26.40584303364323,-35.02057025226588,1021.9499844390059
186,7.567638316661676,1.997041641142013,5.9958482726490985,0.037862538882063805,0.00855425705227848,0.024848838299578114,-0.22229928185393155,0.058704296803513946,0.3534665374464899,-24.81425306803722,-26.700119273879142,-35.74633740742631,1021.9541306779455
187,7.696741090720764,2.015664896910011,5.691927048995771,0.014541553658458252,0.0018276737322541333,0.014973155359433294,-0.11418217205362162,0.0742114424923159,0.07410153284014392,-24.499180710520864,-27.058309670311182,-35.971062276899026,1021.9604751134301
188,7.796046746789749,1.927739668514041,5.572327310718439,0.0019400277591243627,0.002427231482193136,0.006809999926129011,0.004243332739913938,0.02942721163766262,-0.05420272110527738,-24.316673333404328,-26.901331962393456,-35.882443415840235,1021.9690217447051
189,7.827267969066497,1.8244792073594065,5.605664256078328,0.0007625375765559935,0.004498308737345413,0.00465762804633634,0.03943628654422801,-0.04240287284338937,-0.06252564474976446,-24.00582582705387,-26.58824652240216,-35.7266099466885,1021.9799382858839
190,7.802633980755066,1.7229454037528003,5.6554948765261175,0.001771452357388315,0.006478864796937567,0.0043844698263391674,0.09822229210402886,-0.10604698045272018,-0.03418659736478642,-23.736879409318462,-26.405276454825117,-35.811563104092365,1021.9946455128248
191,7.853343658935484,1.5057947097027085,5.695726210870311,0.0018235303585875846,0.0018167041634518056,0.003635282507530938,0.13936345678792153,-0.30420757909684987,-0.026301931881764058,-23.459929238433865,-26.288375346118297,-35.82059546487285,1022.012737735791
192,7.966327995151227,1.3436359239161142,5.7305295088018235,0.0053949465303479265,-0.0007195510117322811,-0.002465709328505794,0.22886141087723083,-0.43801248293344863,0.013663271595571375,-23.328573323595815,-26.170045748816904,-35.84395800328081,1022.0328676868277
193,7.893123341964104,1.3517868689653216,5.647752824776304,-0.0014133544179287146,0.002025644778895149,0.0035349937565441873,0.14702133789845323,-0.44186816300544496,-0.06504323987101916,-23.401819377804465,-26.263561312592753,-36.07194702652374,1022.0545053929105
194,7.941439978538654,1.357699274609574,5.622486370710115,-0.0040736491834588075,-0.0015190462879469298,0.0005663541757105258,0.1728165994140257,-0.3965920286768496,-0.08691592829747087,-23.404735576708966,-26.160477445469898,-35.63161152701064,1022.0760275515382
195,7.974787526779759,1.2183489226342732,5.608679196919436,-0.0071071273651857406,-0.001000686729180891,0.00023927010329888608,0.1989249591529368,-0.4908787396690657,-0.09046871920702594,-23.484533640612174,-25.97530301865045,-35.361657004686656,1022.097279781256
196,7.9698374329620405,1.0196309626245292,5.677602789548224,-0.00479666319435794,0.0063246770395902095,0.0019931094272630885,0.21187138756880813,-0.6148327411326528,-0.03939980931695588,-23.32340729706212,-25.842030281295575,-35.125310084919164,1022.117881412756
197,7.978237547422024,0.9910470108944908,5.731819155799932,0.00023382239745348404,0.005377909343362689,-0.0030306957835789542,0.22477602364757693,-0.6285964884119809,-0.026261079162142126,-23.157805269539026,-25.816824221447543,-35.19376583823466,1022.1395129792882
198,7.976971155128262,0.9539431356505663,5.770700356418544,0.0039954734161473104,0.004878012647154807,-0.0012724112991251732,0.21025824746939148,-0.664443671504571,-0.003011788911087703,-23.090614189309264,-25.829918215131013,-35.17558809460744,1022.1603712056898
199,7.973076212807731,0.9808083705838428,5.777512877914252,0.004936237368125032,0.002387909403378625,-0.0018446005962528614,0.21964666378467929,-0.6339301403622819,-0.005488308381266713,-23.038272705228902,-25.911484461808964,-35.45408766574257,1022.1777380071235
200,7.93737785538888,1.089308210654871,5.77468247303943,0.004339762611729305,0.001788862235633255,-0.0013838711734682069,0.1937109336207533,-0.5336310411797067,-0.015585130962289133,-22.855132250500027,-26.015717862037523,-35.67578498123757,1022.1925566137326
201,7.90981555728965,1.1516472186856606,5.781439889859236,0.0015135293752823668,0.0019231249827512424,-0.0006327509262738613,0.18009221582191384,-0.46982162711610836,-0.017540101930297668,-22.683652465873276,-26.073854744753703,-35.7742500917701,1022.2063192859865
202,7.893324367459012,1.1816170595448512,5.793565906746487,0.0005988000622424196,0.0016974049910146263,-0.0007269064679533818,0.16786487741090575,-0.4230203487328669,-0.020217565574176474,-22.335295847635454,-26.05639583538489,-35.97722566449679,1022.2181363817451
203,7.863183683531304,1.3103610171527817,5.793394797380718,3.367105560110855e-05,0.0011318978786535355,-0.0009390296010599779,0.1361018979747242,-0.28454892359354994,-0.029629594145634777,-22.377676233070595,-26.062204922403346,-36.060733532443216,1022.2273588713751
204,7.826470626369797,1.471522851214905,5.787744283157288,-0.0004892743265759028,0.0009318734503933982,-0.0015681571609328768,0.10211687402048983,-0.12351905164742036,-0.03921815650803351,-22.542347866499988,-26.09673846059532,-35.991784285109844,1022.2340898481427
205,7.774044568590416,1.7394871405806736,5.765108779207853,-0.002795840358620435,0.0002449815216865592,-0.0034854677414366923,0.05265245848184072,0.13266083270212195,-0.06548461736179907,-22.789296794434495,-26.25338451531714,-35.97377070409423,1022.2389610758241
206,7.69679620069198,2.064619324078514,5.746306017530887,-0.003539679219148416,-0.0006979551108746388,-0.0073948054985297,-0.010313802078963444,0.4426219907036353,-0.07976669823108165,-22.811675619781408,-26.33420200590314,-36.14287763922864,1022.2389505192475
207,7.5146752785863296,2.876236368355825,5.751415521805712,0.012094652823323497,0.001954926354126903,0.00169764628115313,-0.21841219729134648,1.1527879619849484,-0.08600036219337648,-22.852845695800944,-26.648218048973064,-36.11281118132269,1022.235851146907
208,7.491959929360882,3.0745272822251013,5.679008711823917,0.009010433446777433,-0.00234513270500253,0.004644340897850573,-0.2399964586815129,1.29951980305517,-0.1372219000530113,-22.95784782558658,-26.903577222400823,-36.30579498274678,1022.2289310558521
209,7.523527539545859,3.313433509161947,5.549358234730118,-2.7450054681712327e-05,-0.004081109492399988,-0.0023800761973301887,-0.21664865084934726,1.4723849656580745,-0.22214208394698787,-23.239120523657732,-27.053128360775762,-36.420454759130976,1022.2185832473799
210,7.524017180237008,3.266746609264162,5.507928353049976,-0.0074490693787644035,-0.002184544508707543,-0.00047826021061071885,-0.2307331755821461,1.4079350740791103,-0.24335677548528434,-23.565981765841023,-26.860132135543296,-36.359454581938415,1022.2059812037335
211,7.511999493381031,3.200794713163384,5.59526727986581,-0.0019307614865052385,0.0029197911670539485,-0.0006913468870992912,-0.21973259222663397,1.3007292285236352,-0.16212914362348915,-23.66277059603448,-26.743440058390455,-36.46029447949794,1022.1930117594303
212,7.480029021951506,3.1634366372839673,5.624558651988396,-0.00020478598563463367,0.0029521489851120136,0.0020047881583572427,-0.21202771859331565,1.2188191467998755,-0.1358988264555596,-23.677046150913956,-26.683483164173207,-36.59186158103045,1022.1789085895372
213,7.486365914067916,3.1010478952617078,5.63663168633939,0.0007212213081799122,0.0026035027353936307,0.002550657484995322,-0.19932478542590448,1.0997137990671846,-0.11265872032306812,-23.704668397091876,-26.66828220831495,-36.69407812637935,1022.1647200961787
214,7.56421517306455,2.929587379266966,5.651309245828639,0.0002962498734103952,0.0018898019640150542,-0.00043567648193497096,-0.11645189500281196,0.8819516423259386,-0.10010473356993423,-23.697627250555367,-26.651610492499913,-36.797733572138476,1022.1497682746494
215,7.591407921106383,2.7898736494305747,5.660187243078826,-0.0005180018423744661,0.001545636158675384,-0.0008865087391001448,-0.08327739502492486,0.6958208453247926,-0.08983489986924863,-23.71061027461807,-26.6732039609004,-36.863706411588325,1022.1357331800101
216,7.610474708913821,2.669086410175594,5.673209879045797,7.507730254031051e-05,-0.0015518732599279351,-0.0005938536062499659,-0.05508939028961968,0.5288527319980756,-0.062007328468067516,-23.757405101782012,-26.714279404948957,-36.83651269489251,1022.1223671527969
217,7.635925699356541,2.5770450833078926,5.674432623729804,0.0007009553507320969,-0.00045734772257592627,-0.0001033077927198614,-0.03155663703917155,0.41635052135051237,-0.03849312574203312,-23.85897309177116,-26.765433146849876,-36.83496002234288,1022.1079540074583
218,7.6453516537521296,2.5095272748820387,5.675222898137305,3.6041556098873224e-06,0.0015457800348177796,0.0003227282326603396,-0.02102816762152862,0.32468083485453175,-0.03071234948076634,-23.899527118912786,-26.813657565196806,-36.88813029012306,1022.091889976773
219,7.6413448583083525,2.466050440431981,5.659288293377043,-0.0002524095037979143,0.00086610223506655,0.0004746003450782449,-0.004091006808955591,0.2522394447979802,-0.02773955863421906,-23.95031040749701,-26.864651705224542,-36.86898930578977,1022.0750543882365
220,7.634177628220762,2.4197779658121643,5.680945757575093,0.0017715520189795345,-0.0007332727014945764,0.0010313304522440703,-0.0020726644428226988,0.19899179773648493,0.008788133305323968,-23.997797565160194,-26.908863968482155,-36.760825154952926,1022.0580676712182
221,7.684370399807603,2.3744454897843537,5.648526795448718,0.0008303959237465632,-0.002197839790322821,0.0006712917157810424,0.012859533102355684,0.14105070458370633,-0.008424188951090622,-24.058158537872245,-26.91214477337705,-36.64278838649139,1022.0416711690735
222,7.709667327204534,2.2838357145901287,5.633330779511473,-0.00044889635921383495,0.0009069796236083139,0.0007318128704131146,0.02616294175251775,0.048338234217516776,-0.009704450963468437,-24.072995475566756,-26.909249630506732,-36.560078193855865,1022.0259944987348
223,7.774680943595133,2.148525339513934,5.6191570820864385,-0.0017737558299701225,-0.0022449509425154974,-0.0013633087123813303,0.07551514212378951,-0.08117071743172673,-0.018896046357552373,-24.088414564211696,-26.90888341428146,-36.46185897980633,1022.0145529782695
224,7.814860262908147,2.0365314996165,5.5885878599587615,-0.0030506805096804568,-0.001177962024921685,-0.0016250257652105837,0.11227216199497052,-0.17665056866729884,-0.020004694732661813,-24.15759662766903,-26.896074291332603,-36.24286471332961,1022.0069648364611
225,7.821790393071882,1.973573519709003,5.612507353967399,-0.002516923619564677,0.00012563075657159016,-0.0011254908220915758,0.09763593132847634,-0.2109290071697709,-0.007667202039880012,-24.17109072117037,-26.855763692632088,-36.217236965992896,1022.0053017990018
226,7.806737014070045,1.9514864735790427,5.646332265644423,2.5287848486708116e-05,-0.0004640809407847222,4.695086546653896e-05,0.06578180108711885,-0.21588826744555525,0.02092458931924645,-24.156867402470738,-26.899361256377716,-36.21408829813522,1022.0108278986165
227,7.8112168280183525,1.8558108797889676,5.669776062093709,0.001298016035369854,-0.001999861298847298,0.0020637559287586234,0.06812143336768427,-0.2853868742963438,0.04309822678506185,-24.213359046490957,-26.868542237779895,-36.13006825412119,1022.02250785967
228,7.8538494825852965,1.7803442924254886,5.645012856559697,0.0010888740321180477,-0.0034601689993775586,0.0006298187349002939,0.10002331531959491,-0.3367619389913002,0.04344564428985412,-24.23599804311493,-26.845905095867238,-36.11276041081978,1022.040513538946
229,7.894061646536855,1.7268251103796706,5.626756997078639,-0.0004379775304769566,-0.0021811301854037434,-0.0004553882978654937,0.11332344638215203,-0.3651032146727895,0.030274892737809443,-24.236555659823463,-26.84059158383193,-36.08923334715673,1022.0612397779212
230,7.905249746786137,1.6865197450083054,5.619440739458186,-0.0009573864344867976,-0.0022310448111220673,-0.0007175371917793405,0.12078731962867975,-0.38065615881659165,0.029681196373321145,-24.07519659409189,-26.72956181638487,-36.12879309159621,1022.0840342682939
231,7.894463012227707,1.6434257316668193,5.6356341528440455,0.0003900088683995635,-0.0006196391887437977,0.0009601559190355567,0.09554346266722422,-0.3997460910563109,0.04875559982587276,-23.89515892498937,-26.654035671903518,-36.01734333201761,1022.1046176677513
232,7.905386585199194,1.5712198779178348,5.646750788095928,0.0022794526216951263,0.0007547908782372969,0.0014169488496732765,0.09385117259120147,-0.4546953503546396,0.0736871865133118,-23.700874875944898,-26.62627231906143,-36.04295289207087,1022.1235873162393
233,7.93344611491386,1.4679304637851835,5.6082667552181205,-0.0001775263542689036,-0.0011020993972140187,0.0002452245357889341,0.14153623994563125,-0.5218027124948966,0.060407510933468425,-23.67401651535108,-26.59806642627538,-36.02201314453051,1022.1447080434494
234,7.9568913230192075,1.4776258967640987,5.590279056654531,-0.0023183594577444217,0.00017310422695502236,-0.0008024123559268409,0.13094954050486107,-0.4692223947547779,0.030604361385973323,-23.69695690930518,-26.498716284448527,-35.95730066751457,1022.1650078396275
235,7.959636678556917,1.4724325056477112,5.612560025937324,3.220682095186845e-05,-0.0015843860816871281,-0.0005541739790411995,0.1291094464053291,-0.44231683164854174,0.05936519762338956,-23.707439919302125,-26.503526976848214,-35.94333769149068,1022.1842343602397
236,7.946901029443114,1.4374391483911193,5.617731568974757,0.0022385766548208654,8.805707359827732e-05,0.0014905226982366957,0.1112688771597294,-0.4527137736781958,0.08148973734507575,-23.725265010272302,-26.552823131687582,-35.97032248258854,1022.2023476966123
237,7.972722707154153,1.4322784638426878,5.587068656276127,0.0003917182079160634,4.6007689301891955e-05,0.0007217782593532718,0.11608349805035917,-0.4348709002017061,0.05495265223297651,-23.869397375772763,-26.61448346632592,-35.99965539610202,1022.2188653995244
238,8.00989237092669,1.4365868972353555,5.54727067959724,-0.004084858588110281,-0.000821964321662495,-0.002937693413263283,0.1311075491366409,-0.40112784284914765,0.012515202306655114,-23.920707809350763,-26.615730105103303,-35.941157952277656,1022.2332497590914
239,7.99917081661695,1.4113170843197773,5.543180297647229,-0.006424148587150409,-0.0008304859626518521,-0.003751071220472621,0.13091854124932076,-0.39474648946871627,0.014027400467929226,-23.911214635759784,-26.518647485285506,-35.83153235938922,1022.2465925693225
240,8.00062881308774,1.3971616944990404,5.573724582700274,-0.003629973484147425,0.00035162083901683753,-0.0030193107239577356,0.10438243035958056,-0.3857049409987093,0.03267794713540219,-24.01706298477414,-26.466389301340026,-35.824374288623574,1022.2575877733397
241,7.943277688681552,1.5567401450602836,5.589619883768497,-0.00029496985065223654,0.001470914534136524,-0.0007553789761102453,0.060895749823947944,-0.20977603323802382,0.042467799280618064,-24.162296971773195,-26.529849198790412,-35.84480092190743,1022.2669111956012
242,7.931983569452763,1.59696234973082,5.599441639639532,0.0004275719113613842,0.0015369585254133337,6.323538170954334e-06,0.041951034176489106,-0.16048239347237162,0.03655728092981793,-24.18689442822717,-26.60344447707364,-35.8390201445434,1022.2748699447601
243,7.907585111256935,1.6688264902525043,5.613103736018994,0.0006597299804700849,0.0017948578651201868,-0.0001889895742472302,0.025169706640100577,-0.07418371703431566,0.029538673601657853,-24.1600070954966,-26.616819767683644,-35.84443912974782,1022.2815239071818
244,7.865908324633014,1.8285381950104127,5.618171258075739,0.001262850633248071,0.0014607371722876548,-1.3298586558566794e-05,-0.009340160670838024,0.07746894643171669,0.017261413353998785,-24.120131373095436,-26.64305980570036,-35.92365660670694,1022.2863802603218
245,7.845698214351532,1.8704873102563293,5.626693444317459,0.0010427956558396335,0.001423449378022131,0.0003866572912563219,-0.001963079342788621,0.107562253469868,0.018001418468200938,-24.080874361694576,-26.674874795081244,-36.02473252868088,1022.2912435421204
246,7.833652837901928,1.8529743787216808,5.644927753730034,0.0014948617572256688,0.0029107494539579986,0.0001297821633522033,0.007505072702613688,0.07794925317450878,0.02506357247322514,-24.009186083615216,-26.72995195877057,-36.052437840284476,1022.296153484814
247,7.815355923980242,1.8897713024878962,5.649093425691069,0.0020032132901619142,0.0009309966064344885,0.0001742033369600677,0.004368096416855682,0.09651297753851747,0.026268706583556303,-23.92198121100669,-26.777690652317258,-36.059357187007315,1022.3003037637214
248,7.8242881540278155,1.872458655272315,5.650281593844912,0.0012737643809499796,0.00042412145870494,0.0007846300271254244,0.012072999162617015,0.06474034286833448,0.023793466157432247,-23.86895159175103,-26.815430635060324,-36.03844830715468,1022.3038996067336
249,7.840752128576301,1.8199944235009846,5.648347133696666,0.001302615183219172,0.00023216412362281748,0.00023469424573615834,0.01903613408452117,0.00625072478898208,0.025155950080194646,-23.923559296616038,-26.794236953357842,-36.08440964600248,1022.3074103929503
250,7.839161229775352,1.879222384018108,5.628345316371407,0.001033318643571518,-0.0010664461533511865,0.0004231537833715131,0.006579545587654301,0.05671964026253857,0.01728065116219535,-23.998655900987046,-26.835017869414575,-36.114752791786685,1022.3105703040026
251,7.8568127001674455,1.8821572229774912,5.610005518191366,0.001056507707175899,-0.0015937822405790538,0.0004761969575807769,0.006680074915000761,0.05279223904730253,0.015325301623216063,-24.10280256913661,-26.85016800311134,-36.17373371454614,1022.3128765454552
252,7.856843696587031,1.964732412521656,5.58892325539297,0.0017953095995162898,-0.0006420159862818768,-0.0010089920975634142,-0.013043922831452837,0.13430770600422307,0.004383767216774616,-24.18969569256606,-26.923313942367532,-36.23550336960548,1022.3130139076089
253,7.7927756303109295,2.299212080610456,5.547467682202108,0.0012840007426485863,-0.0002487977918449557,-0.00041311186260081106,-0.07183135241510258,0.4326325703808608,-0.024881042179496736,-24.237836397576228,-26.955719156432686,-36.16739878912828,1022.3110736706553
254,7.775371674168957,2.379823231913521,5.539170149993528,0.0008545554058060124,-0.00012494773616437548,0.0003799683719852532,-0.08562770051784434,0.4797845362544728,-0.02628509218996639,-24.234341568322705,-26.94469102438702,-36.12972408035129,1022.3067925941403
255,7.711085085670079,2.482349866776015,5.576451468329022,0.006401429548655685,0.000561598438056661,0.003177372827465613,-0.10923510261921919,0.5453293106044056,0.015178778907538892,-24.170667794450058,-26.943169763522977,-36.15063522769022,1022.3007825385404
256,7.715932314627604,2.47516812619098,5.587667248883145,0.011144809761362395,-0.0020058864802896025,0.006937736274384909,-0.13253830775529624,0.4963493762261396,0.029569776597939135,-24.090025676480263,-27.053906403009435,-36.1967103074106,1022.2922532912853
257,7.7421845630112145,2.5274097095524795,5.554414249557301,0.010786308760724709,-0.0032019434572832847,0.006461435018037419,-0.12582563761655155,0.506902591661899,0.02655165358136979,-24.042862566290232,-27.180404690968178,-36.22405691831241,1022.2828747396976
258,7.776824220711529,2.5348134823134303,5.499881340676307,0.010758923372820464,-0.006473128748693584,0.005833922284861168,-0.11305349190729473,0.4848531012441072,0.019190503875348302,-24.196116737992877,-27.33302637152172,-36.078432619644865,1022.2719899460874
259,7.909684912310298,2.600034948295551,5.3334232124820495,0.002667444716132004,-0.009639088861673173,-0.004460731008587579,-0.004893210735213094,0.48556667703859063,-0.07426989232038318,-24.219333878824468,-27.62810833866078,-35.968731537285166,1022.2605418210179
260,7.964319755228949,2.430874300678841,5.266066879148784,-0.005744788312726588,-0.005278638662004083,-0.00515845511129082,0.03022041015515161,0.2547403405809505,-0.08898049688979608,-24.603471266114514,-27.408226479325137,-35.989636702877306,1022.2468481913037
261,7.9929290652539216,2.304259184469104,5.268138257098231,-0.003289789636330537,-0.004637474080152606,-0.002906462316530476,0.0290574822396627,0.10213068461034197,-0.06840949190004313,-24.99168780410518,-27.734187449687905,-35.88125098824923,1022.2311653013664
262,8.021235655938188,2.334908929436235,5.279576114191145,-7.774173640729028e-05,-0.0015140613989298628,-0.00688456513574663,0.06927606507171871,0.11120026208843642,-0.028642959378754017,-24.98711067932332,-27.740686955339978,-35.663984216368576,1022.21271138943
263,7.988558810482429,2.2528854439026413,5.331597804183917,0.001976666231041403,0.002385027404614149,-0.0052978044751611315,0.06581054746654423,-0.025202471436003154,0.01179612226883981,-24.812952939361665,-27.865078995914374,-35.63684002336408,1022.196563507127
264,7.958930227655766,2.1041823577921988,5.388698979751754,0.0007968909882928813,0.0051501427520110705,-0.0009359234160795319,0.06500308582825065,-0.19332229629032474,0.019249254369586737,-24.54693097442349,-27.917916135698334,-36.035715892816704,1022.1820986662275
265,7.941205960264972,1.9514537555424445,5.444821275805584,0.00024815112787329437,0.006302482344365675,-9.159799262796302e-05,0.09454216787036558,-0.31965008302319375,0.023695923349471612,-24.201183743503783,-27.880829236087976,-36.227346344132556,1022.1659763739862
266,7.933573228559048,1.804363530073732,5.5646991525784015,0.0026613580491313764,0.01089954516250417,-0.001466859261789397,0.12655515048575772,-0.4422848404358877,0.06061858334584285,-23.688629229975124,-27.871770832373063,-36.44083320986835,1022.1507880907201
267,7.9289382929970325,1.6292335038796764,5.642091956063472,-0.000798376308531168,0.005565329004397107,0.006469775071440883,0.17003988549445515,-0.6287088546446244,0.08491540424721515,-23.300224343479886,-28.057416667668466,-36.66222903985805,1022.1377657263306
268,7.9305946351944465,1.5374510398754515,5.640660829426877,-0.0011358571546994376,0.0013148863241898463,-0.0035677022875911842,0.18091571342088336,-0.6819645151466109,0.04560809351169546,-23.078246150509614,-28.14104089506327,-36.646041010659495,1022.1258292181988
269,7.993499806648464,1.6269365043364423,5.492224831481932,-0.028663564865581904,-0.007746181121809524,-0.02250223006256004,0.2558637494376119,-0.5760650199731675,-0.11826022209321482,-22.897596302509363,-28.422996361394507,-36.580356133663884,1022.1113258230167
270,8.061102416045793,2.193710069679459,5.206506629365505,-0.08412371385576159,-0.0232790597341258,-0.06379666490901467,0.3078505399295508,0.010498649770153134,-0.43025857022826075,-23.247625807279615,-27.77525646788546,-35.86132187296456,1022.0954228552619
271,8.346207952326827,2.567950821905686,4.657416282793041,-0.1665752342731297,-0.055021433187742594,-0.11351905123782388,0.5290482515030386,0.40758862663501355,-0.9318376987596304,-25.209089863304637,-27.067630864291377,-34.39771473960254,1022.0778800305897
272,8.415650657814181,2.660281404765883,4.437374946419229,-0.19755580400946476,-0.050402706441838065,-0.1281435885214364,0.5571488799187061,0.5771048091267917,-1.095762531789524,-27.658491880266965,-26.753646422583724,-31.82024296249485,1022.0599030175191
273,8.144542616422681,2.7701255678391505,4.76059538073566,-0.15310827861202458,-0.03307627497766903,-0.09807507547231659,0.28361149988119044,0.734176430494265,-0.7772471708499318,-29.58208610502149,-26.905505918112382,-29.711455897156704,1022.0441445307915
274,7.9413867466820625,2.862808856797578,5.026369534115501,-0.11021443349934441,-0.02697618419669925,-0.06885610187777069,0.06069602302307975,0.8800809376170616,-0.5239221439048556,-30.864357340557152,-26.874675350840434,-28.111385020537046,1022.0326432971431
275,7.786803618513331,3.0076318041558983,5.20404571627628,-0.080469964267684,-0.017828478770537982,-0.0497415016674158,-0.07487441641647624,1.0346292625775821,-0.34686584661642306,-31.752560348205968,-26.72836789288854,-27.081789469818958,1022.0262072854326
276,7.729024065288518,2.937374330209715,5.421648826150073,-0.05652715255692001,-0.006644748174145036,-0.03625794752366555,-0.15007269465837872,0.9513287743863235,-0.16808175004616588,-32.94733697492583,-26.03599447688404,-25.70538918436713,1022.022581711958
277,7.719721493432596,2.696277524243054,5.542827403757051,-0.03762801631698459,-0.01726158138618187,-0.0266370238944672,-0.15083609600710035,0.6546411530160895,-0.03342874807832866,-33.43114502734478,-27.41832936929165,-24.59282274574609,1022.019935609679
278,7.696477302652291,2.6634301431527114,5.61835574655301,-0.025015146723696133,-0.00989578860596009,-0.02053620620402086,-0.1551439155340273,0.5692104350637601,0.0696949262286949,-33.528487849401806,-27.62099334235189,-24.11993134886928,1022.0178395730787
279,7.6665547881432765,2.6235065034742275,5.631130342452461,-0.019471471601296225,-0.007013715753231809,-0.01548594761078173,-0.1362987260679063,0.48916953443701217,0.1019212813900315,-33.713358076417066,-27.67695994445229,-24.08582033097474,1022.0154131453191
280,7.672480372157068,2.605246763951697,5.629868004714338,-0.015701466637697177,-0.0026996029762971626,-0.013631931232240041,-0.11300486806410068,0.4225506640127269,0.10345802117700463,-33.87730885992935,-27.727333624149544,-24.078972020839252,1022.0127455836242
281,7.6339685411665075,2.589826057590165,5.677674479778176,-0.00900104751670194,-0.005309453139922345,-0.009784120548014918,-0.13398108438404288,0.3589924161151964,0.15099311178145738,-33.988161335427705,-27.80714021849434,-24.079290051422824,1022.0067177005552
282,7.61791426953183,2.568843263748224,5.7264048887992125,-0.003617703025183892,-0.0031545185974578066,-0.005130526882954678,-0.1794724084757776,0.2797309088567758,0.20061172581612657,-34.120333574844814,-27.81876716131614,-24.02381522446138,1021.9992058178248
283,7.603441622623933,2.460767731505921,5.743776817049626,-0.0007693429759547095,-0.0019616911672384295,-0.0013327920968603801,-0.14929604856126621,0.16732577969401388,0.22501411039267288,-34.266504158067185,-27.78779769786581,-23.958549976874878,1021.9911471072404
284,7.636819426808645,2.3795310534759992,5.747470798906971,0.0005252457824547565,-0.004227098213575231,-0.0014470550737611392,-0.1192388590240211,0.09242380055933541,0.21769865568565777,-34.40800316727858,-27.766529306645857,-24.015245634598404,1021.9825447641704
285,7.629428032208164,2.3322022480049887,5.735609343786231,-0.0008180466801720693,-0.0024349465256387893,-0.0007884999146246111,-0.0944595113034357,0.0375365593014561,0.19259431313455097,-34.47385743093901,-27.75436370412411,-24.060015823801407,1021.972226481525
286,7.632871708873046,2.3027912332567775,5.721280444979415,-0.0010168418668958568,-0.006283867284379829,0.0004084551389227254,-0.09708108945693412,0.013536980038833496,0.17288757339143138,-34.50810437430922,-27.719095779789132,-24.170014874618307,1021.9633765742495
287,7.615109579732865,2.2987494798842945,5.701015239022146,-0.0018196970002520053,-0.00022836199207569054,0.0004317824632889897,-0.062015147164739964,0.0013798352919291521,0.16017660460284142,-34.45840270403899,-27.64807312714747,-24.17927529805099,1021.9548770345308
288,7.633349801893596,2.2618621302829207,5.714357642827321,-0.0020761419104877578,-0.0007137581233641077,-0.0002154598799311678,-0.04392898659297868,-0.03228970048536807,0.14990189333573609,-34.37559347881163,-27.62234514285568,-24.202715348655264,1021.9452521698418
289,7.652522783551138,2.218475655348222,5.721438648859922,-0.001996438129218226,0.0009326257660023812,-0.0017148393361477226,-0.00016040099334029695,-0.08066084900610665,0.14444949041258465,-34.3067053999321,-27.574798204830305,-24.146911152148387,1021.9349505272869
290,7.681137312069598,2.1781061430462,5.718127356765716,-0.0024262006001458804,-0.00021071618049396624,-0.0019369934416987673,0.012810845204356871,-0.1123433664336462,0.11958977621044829,-34.340497206865564,-27.54308667308624,-24.25642084045052,1021.9274319374607
291,7.666846239106911,2.117366030149502,5.729084794633117,-0.003288448389866313,-0.0014439359799404128,-0.0010758069714432946,0.02271988433591196,-0.15819989801378193,0.1165069097372185,-34.39956292023802,-27.524355063927054,-24.33363814335738,1021.9221712024423
292,7.690515510750384,1.9942683853401515,5.761230701488286,-0.0013739039363499757,-0.0004557526957342246,0.0003149843063922587,0.012718926046078143,-0.27429784766624876,0.13329438681089503,-34.37559442780359,-27.489445327717664,-24.266341357954854,1021.9188468755642
293,7.702062553863208,1.8978881018062734,5.769429577059835,-0.0014372352024258008,0.002923696671791722,-0.00011776593242521818,0.04315505856900787,-0.3574183986747086,0.1438666651629642,-34.261563569029306,-27.42958346664089,-24.196237242440283,1021.9178840724422
294,7.7094338160497395,1.8229281869791545,5.787051916868841,-0.001027726048966236,0.005945365874545158,-0.0008790865886044515,0.0916958022947979,-0.4031915710834351,0.16523956300741618,-34.24372808526522,-27.36869073904244,-24.204376967067052,1021.920891431822
295,7.688116443946012,1.7633171022742813,5.806403177037885,-0.000907430634181101,0.006966207969472683,0.0007093104430928793,0.05861328040696807,-0.43172110457595547,0.15931026285310002,-34.21268533348099,-27.291891546775737,-24.246296240810526,1021.9230863343842
296,7.688283184661261,1.7229621478606583,5.8406043751288514,0.0017668290122926195,0.003058613383520854,0.0009649887282454201,0.08227069860322894,-0.4406786239816658,0.18093473549023534,-34.040098871983886,-27.198320795869133,-24.372188102096125,1021.9246882703846
297,7.762529525196548,1.576271667512176,5.826362725647326,-0.00041801195798860514,-0.0008537418920520051,-0.0002400801909641316,0.13174186541689598,-0.5638236516416095,0.14906612915509673,-33.946925052033656,-27.21063326889246,-24.348302924687086,1021.92515664821
298,7.711116895400526,1.5369148797020897,5.793385602461925,-4.1372117241598885e-05,-0.0060991635108924545,0.0036601178790297145,0.08732448689561673,-0.6027562931035778,0.12927371229253662,-33.89650983158117,-27.330101576359603,-24.147547127687314,1021.9245505127088
299,7.761228178159113,1.6443821742701066,5.7818172532654035,-0.0005448104053745837,0.002859591040959857,-0.0007786463446136814,0.10834342036470433,-0.4553601184233316,0.12815555470034654,-33.98454785742769,-27.338452632491244,-23.96344783720602,1021.9241081284786
300,7.701444350190869,1.8776037383564743,5.789177858653283,0.00058176321336091,-0.0004922984422792518,-0.0018502261279289677,0.07589734765889997,-0.20383515383833012,0.12681750208101508,-34.02563936341735,-27.414093211125067,-24.101066747778464,1021.9197866750042
301,7.658773950958007,2.1014666823966706,5.783350680569679,-0.0007675836763151704,0.0052553507422011085,-0.0027173717052891766,0.03164861554309353,0.01206120645007952,0.09267246781863483,-34.00787002012178,-27.504169495888473,-24.235846854290504,1021.9166326890302
302,7.6351558800112915,2.284026641963176,5.746528139311814,-0.0009354346386317177,-0.0020633054723586666,-0.0018938728927846873,-0.003360252931406106,0.1892902713626541,0.042329196750555555,-34.08167309080291,-27.560237474718853,-24.304747161006937,1021.913815313907
303,7.631186012663398,2.363764577707767,5.70693260715237,-0.0013927374688322994,-0.0043405241442804315,-0.0010296332825695267,-0.019830352081727676,0.26980353105348176,0.025392640252145392,-34.19130810244978,-27.615509771419386,-24.223394962030103,1021.9079666172722
304,7.643403236523546,2.326310458014149,5.686345955433881,-0.0038880430585979016,-0.00039292637230315883,-0.0006120234370039036,-0.011343954950988559,0.19916416787221147,0.01067270678254323,-34.284380669355585,-27.647862237524194,-24.161392461553444,1021.8999260613346
305,7.6590320227551585,2.2221918220562595,5.706021102490814,-0.0040727844300218205,0.003673844748347618,-0.00011873422064576306,-0.007509394422920721,0.08611060293811883,0.022171241412001184,-34.33675390605787,-27.743093438801974,-24.17902841765098,1021.8920380236904
306,7.654106764339806,2.1378936248063747,5.756279695274797,-0.0011383684276243342,0.0032239766072166627,0.0005221493949576906,0.0023387760504472886,0.002482513754155133,0.07095432581042149,-34.32892226149049,-27.70804083278304,-24.2453899631474,1021.8821586747783
307,7.718485339940651,2.042972703025701,5.777970876900256,-0.0031436091109547392,0.008384837260955924,-0.003742178616740591,0.06549193387233318,-0.09002933086238234,0.043215745301894475,-34.23769711630568,-27.676495680212824,-24.429035933808112,1021.86841456536
308,7.759898723086172,2.0371639731986417,5.71300798458396,-0.009900146049915466,0.004308484724571035,-0.009160580372103901,0.16040223601706427,-0.10841336895155398,-0.06879747108681544,-34.15384646597179,-27.812978668147217,-24.577314828985,1021.852694562968
309,7.83157596226373,2.088477643630093,5.648205497133841,-0.016192119821583726,7.871287894812163e-05,-0.0156627946877297,0.2420259048825285,-0.07190336677182635,-0.17576829680719797,-34.216748508018014,-28.040626189930528,-24.605859375915806,1021.8360068616714
310,7.850746686401375,2.0938149203733394,5.568230775413786,-0.02331331608457033,-0.002614098648044312,-0.018601642523042142,0.2880598351458627,-0.08029971591869707,-0.29205337847495144,-34.32521693126879,-28.35559696672078,-24.521676711483348,1021.8212509667493
311,7.891695182862427,2.115789108988298,5.499426754806913,-0.028486476254069422,-0.0020850243603517367,-0.021255433200001443,0.31021817066174606,-0.06980763834074902,-0.38877685847139265,-34.40693848862064,-28.727154362690555,-24.298683268111372,1021.8104814685021
312,7.9266409585887105,2.1157780784592974,5.426743280538971,-0.03217525541368147,-0.008622882359763075,-0.024389435003170232,0.35272708861118124,-0.05621620061352842,-0.45478033325568934,-34.49430200624047,-29.11545930093319,-23.99758949257375,1021.8026214171051
313,7.94032430906459,2.1369580290838286,5.3495144103520165,-0.03751719427277465,-0.009453546419839188,-0.024447996303008944,0.3268492385679683,0.017840918398389256,-0.527096853292731,-34.6700032354245,-29.44066146630553,-23.642230996893584,1021.7986986362251
314,7.933702961028672,2.1569701481244943,5.373206528894227,-0.036042439940388186,-0.008826650982919206,-0.02374077821490167,0.29338521604128387,0.07880246043481454,-0.4814866554283561,-34.86762847717762,-29.794544977937292,-23.258495110708825,1021.8015861640937
315,7.9588513275306525,2.1791647150075146,5.363828331219602,-0.037150223228551334,-0.00981942717535255,-0.02527679658459201,0.28097428501311184,0.12129225348962468,-0.48792980509866185,-35.05625665545185,-30.23240405242575,-22.944824045825698,1021.8112166484035
316,7.979931317941945,2.196860346087508,5.344521925570415,-0.03693591728109534,-0.011277262099808685,-0.027026016017017138,0.30378102692966175,0.1463013125372622,-0.474569602785578,-35.22880441512477,-30.73147281322657,-22.617114700038428,1021.8232954276223
317,8.06123172974279,2.2098562711833627,5.2807822728174765,-0.038232637935230705,-0.014744997059183732,-0.031000196435279043,0.3719539498278092,0.15749356881702872,-0.4893910806032315,-35.418362981473656,-31.35219213147218,-22.168670438831747,1021.835346980709
318,8.122276487898993,2.2229783804115284,5.263137587924245,-0.037744299644980016,-0.013512261243212597,-0.03121157994321063,0.3560870979709052,0.13747904447615425,-0.4838301395272056,-35.63631787679934,-32.079586171602855,-21.74703602849989,1021.8452968392038
319,7.993829181214491,2.192610895491764,5.402541973367868,-0.02990977709327592,-0.01022573452178043,-0.023708989661610044,0.23165790878647533,0.09351260032312503,-0.32719094595210174,-35.788470397150924,-32.771622417555534,-21.37946795203284,1021.852558681619
320,7.875619487927965,2.1515033776569616,5.561314734802959,-0.017510831341294077,-0.012762313997376928,-0.015059094791471586,0.09780749326485702,0.03943178699596633,-0.12159797017163429,-35.96666924117784,-33.26227400820728,-21.021159871526343,1021.8571579069826
321,7.901701533571309,2.127064146447104,5.556730114067526,-0.014211454456960964,-0.01231992410059336,-0.013558052320572764,0.09029133837251535,0.00224292512877685,-0.061760846103366664,-36.137294471598445,-33.58749320399107,-20.617402997916294,1021.8604527572718
322,7.890871284058919,2.0905273668039186,5.562559742840569,-0.012399681813462167,-0.006651852305616742,-0.011408800013564665,0.0625107881799051,-0.055331869210463694,-0.023743458270416434,-36.241191929588815,-33.86339602875158,-20.39911116643326,1021.8628574832882
323,7.879217358344476,2.044850692442839,5.575766921764364,-0.00979041454752814,-0.006878094135002427,-0.008737217156513533,0.027629996756354115,-0.10488222429139851,0.02337389192182108,-36.329655436537806,-34.11755857669085,-20.19268574556305,1021.8650866817852
324,7.863696842402139,2.019981621642551,5.615310114718677,-0.006583474378865918,-0.005870002023940844,-0.007094754180779451,-0.00797543962883733,-0.13637349504538573,0.07997524115596308,-36.40556572636961,-34.28881501307586,-20.02158079412631,1021.866981643423
325,7.841019948828556,1.983266424721939,5.578156550756237,-0.00791108886969018,-0.008227381582316303,-0.005283857296710416,0.0023337041988042533,-0.13685858985099417,0.07788606710465615,-36.48844919750714,-34.41892991902026,-19.872948547717574,1021.868364669403
326,7.812995910025034,2.002532898381117,5.575990515488128,-0.0070218391941868005,-0.013107285832424478,-0.005211145448656453,0.0071269097842742565,-0.09470388351442108,0.1104832829451902,-36.574848021472775,-34.535618426987135,-19.694180226372467,1021.8677458308345
327,7.8589700131407145,2.0129597268122086,5.562693563182706,-0.007345445351993136,-0.007725807370214714,-0.005382225794394117,0.00694032886731419,-0.08463035761556487,0.10056276290347667,-36.60687002594812,-34.69647563941175,-19.617910909452412,1021.8672941753493
328,7.806066240203731,1.9728270006420687,5.612768720571006,-0.0069551774218452895,-0.006165873270758616,-0.004132875170469467,-0.03180182032591417,-0.10564071645857018,0.10987098291713704,-36.561695765194095,-34.7728018491381,-19.709305670609332,1021.8669645373991
329,7.830029772602055,1.8938590796759254,5.715593411310217,-0.0013846012830270264,-0.007790193862705435,-0.0027142423397395078,-0.023799698017772118,-0.20303084121288267,0.2079615473166208,-36.582500202492746,-34.85315338287517,-19.610344731075955,1021.8666620874163
330,7.798099434011302,1.8277571493943006,5.688568801043394,-0.00262926435994294,-0.006501625498639318,-0.0008400212920470511,-0.03899546835603482,-0.29629466465281684,0.1905102665932756,-36.65187539795652,-34.92809829630027,-19.60097330696813,1021.8659053562508
331,7.809899723021133,1.8354565324362855,5.696047856860566,-0.0022518742619133687,-0.0010708676928105438,-0.0022243343445898026,-0.017884039085023982,-0.2916011982157815,0.20801111213304682,-36.67217967167476,-35.04842101141769,-19.50438600309435,1021.8653530607104
332,7.781524654762775,1.8616926624616787,5.719801155684015,-0.000724885952526473,0.0010853400016042126,-0.00023370988931281818,-0.05554503882810995,-0.24835782177715843,0.21821082467416858,-36.69987823980275,-35.08866285429509,-19.51570414877501,1021.8660424829618
333,7.784160917147211,1.9035047614497649,5.718208508051761,-3.094458146135669e-05,-0.001167178274281993,-0.0021170468685835285,-0.021287894271562705,-0.19961475625732122,0.2155011494617009,-36.71416242311081,-35.10131348519395,-19.475255626735837,1021.8671637709222
334,7.738538829917247,1.9384540223512934,5.700028441989518,0.0002772772531967045,-0.004202280031292027,0.000396855395101921,-0.06825936175863778,-0.13715969809762862,0.20191938481578592,-36.71382751626039,-34.97332912107953,-19.485660644895447,1021.8679821359747
335,7.7751671094366435,1.9939117056549822,5.638910391676218,-0.0017867638780752072,-0.006693455753482956,-0.0004918051785957004,-0.06197392730116997,-0.07122065844159109,0.1535964800525526,-36.77741048015273,-34.981406261530395,-19.33223035128406,1021.871485755152
336,7.759597430822395,2.0075975590716673,5.675743521243412,-0.001351482731284694,0.0013893816975713274,0.0009534197717566539,-0.08902783108613624,-0.07019201073018878,0.16845868047430973,-36.769610477011696,-34.97741795452462,-19.364118280523208,1021.8742076451338
337,7.75194452965422,1.9820279330661774,5.699826146891066,0.001085512500344341,-0.0012125574348204617,0.0017485949963103116,-0.10786899965806009,-0.08310333342273564,0.18226050957562057,-36.784035542342444,-34.96967382931335,-19.355140765447835,1021.876936318743
338,7.783396687940882,1.9625864299066595,5.7365224205162235,0.002538108454404724,-0.0014252740586448314,0.0016898771375767182,-0.11440848657854269,-0.0931280690537702,0.19386385332009165,-36.78808675893063,-34.90276964881584,-19.35569576473902,1021.8802469970091
339,7.775651922644109,1.9165487647746875,5.807909557403017,0.005891933337115935,0.0010808744549973119,0.0005295024150439929,-0.06739080497509954,-0.1528552922823922,0.25604996636003935,-36.64172019901663,-34.95040273033897,-19.347464375052173,1021.8828899360378
340,7.8017451427274676,1.8556292618452372,5.877756605980075,0.007594340123424099,0.008412283919965336,-0.0011406308530324955,-0.027102427189071,-0.23967024528365138,0.2802381066716729,-36.35194637407037,-34.87472531892325,-19.432829940295584,1021.8848188686703
341,7.732774730851827,1.7832834787838492,5.872979021614494,0.0034691804749108776,0.006914278118521124,0.0009278313516616196,-0.03981037590382622,-0.3218750797463146,0.22017509228234033,-36.04771452704119,-34.84418449429366,-19.538210719759494,1021.885484569056
342,7.6895250967413125,1.6674288643237907,5.911464615154906,0.004312473972289615,0.0025300383267505546,0.00410098497140078,-0.02446477355494997,-0.4372975344622275,0.22992290631263188,-35.92543341352089,-34.70196334203154,-19.77019558649956,1021.8839299364788
343,7.7719289967316385,1.6354555557054198,5.978188829825316,0.011121040224356647,0.0032966053434925003,-0.0011268367880446573,0.05741502826371271,-0.46560655841612225,0.296170745710038,-35.90119500129292,-34.68372870641912,-19.674984904685644,1021.8808578722761
344,7.622474692486847,1.6619882087585682,5.882687684112301,0.004450174757350381,0.0017477402269788038,0.008790380688723436,-0.08930362176137573,-0.423290983606337,0.18746677846373688,-36.07020644605591,-34.613336641349164,-19.796401538539964,1021.8766783200276
345,7.583419536601208,1.8676569297863874,5.810310490781502,0.003198383320592013,-0.000368853623764301,0.011570675650543469,-0.15962025057928705,-0.161157204669566,0.12720761778189912,-36.3006691408816,-34.30246034495239,-19.7938163427137,1021.8714636783686
346,7.581395052045535,2.042794918295524,5.788978984469004,0.002450279802067688,0.005405811729709874,0.008923969795837804,-0.1713040222393747,0.07477090342507745,0.07529222391887341,-36.350548991116945,-33.93958744468126,-19.951676067539534,1021.8669983532333
347,7.559237477468065,2.2043387733546704,5.815263760695781,0.0029947479552124953,0.003713336324828058,0.006648977704243235,-0.1527742551577516,0.2660786444564452,0.06309686280811105,-36.302813759058154,-33.79238498728465,-20.064373935974906,1021.8630796419519
348,7.529662843765571,2.3038441530436793,5.822088933148372,0.002660292968750295,0.0012760960363964432,0.004869202703726505,-0.12711494098222526,0.4071468788154641,0.049225748936939345,-36.34429498666351,-33.66944959614702,-20.195778244487162,1021.8602195948657
349,7.483803055394808,2.3840968217465166,5.880214002951668,0.005452617965297932,0.0036015423404612908,0.005884395308984354,-0.16206646352465867,0.47387731907245195,0.0786787977493326,-36.363241635696326,-33.61528090235875,-20.29129875084988,1021.8603788263241
350,7.442020672261808,2.4197444817185825,5.972303818698577,0.009735271502619028,0.00313010181406758,0.0072694784223007675,-0.15139695208892595,0.48440875044516574,0.1579918253426176,-36.376632004923614,-33.442164575546165,-20.552466576310938,1021.863257117525
351,7.483696527970988,2.2803049632977586,6.0092639476694405,0.011655541458980529,-0.000497067166206976,0.007950911434843565,-0.13700913423850505,0.31773970710324123,0.19645454830493064,-36.3911455632953,-33.346745123590935,-20.509613535453166,1021.868202025077
352,7.54066488769914,2.185895080662343,5.967109357307897,0.010108128529367787,0.003780935371006182,0.0057872190543765785,-0.06983743353466143,0.18502506074139916,0.1680761652407511,-36.397600128243404,-33.213195227267065,-20.420152764018646,1021.8746555098916
353,7.5463903481780275,2.2014910038445468,5.930317910675327,0.00872202926200959,0.005052831491163256,0.004715650871032916,-0.07773595096824078,0.16127570691528442,0.11457203120804502,-36.370638809577756,-33.13262084674837,-20.530081429195945,1021.8827457402181
354,7.518935772374969,2.247117622704051,5.934383393150572,0.0077581307505112,0.008935919210239271,0.005434827833360973,-0.09302993100420735,0.19507044748586647,0.09531758197709181,-36.377206471403376,-32.993821498129975,-20.766583304654844,1021.8886503445664
355,7.524610360489761,2.2993580952705366,5.97992266872212,0.008280030209918165,0.006537212195764752,0.004140887673555376,-0.1089516237179512,0.21552893125884706,0.1081884082447624,-36.24191089022001,-32.96495811343759,-20.91369433064737,1021.8915995468446
356,7.500691875717591,2.2849483096341325,5.985651579759613,0.008902830864246572,0.0040107867670250855,0.005832735633620474,-0.0928215191609661,0.19430188267683554,0.12999531572888381,-36.1905923107858,-32.82022498195002,-20.96452261403651,1021.8931130843663
357,7.446229080218836,2.17331608825798,6.0072435423843284,0.009090788782322707,0.007652101480577621,0.009355440750783572,-0.09592783226355996,0.10482535141724363,0.17391192318565302,-36.20023017708928,-32.66844955408152,-20.947236367693925,1021.8941145306517
358,7.4480124491345165,2.0379794314773023,6.040384004373885,0.011235149038849684,0.0032634637696225587,0.011608481814501928,-0.09524248585313158,-0.02488758977109444,0.2084948864069475,-36.23745539187468,-32.37811013488134,-21.07801198117301,1021.8948454300022
359,7.445444100769796,2.010368144112836,6.05016357139049,0.011668569236130783,0.0024009689328546606,0.010590364999466886,-0.09601078043920612,-0.05930106310727551,0.21437776308925577,-36.187512370429786,-32.164245251166825,-21.21768923457171,1021.8953788723529
360,7.489266868117127,2.083379555063,6.029016237243459,0.011488811924790695,0.0013169047959010064,0.00945278572205007,-0.10103641011167333,-0.008899198472252151,0.18870248385022684,-36.225368389882135,-31.962550831453637,-21.354281685707885,1021.8952322120145
361,7.5343667374287255,2.1294512931529,5.9652181563874365,0.009791209857072785,-0.002192529614989558,0.007904702710119975,-0.10531346106765171,0.03245240562462799,0.10742518378051161,-36.287786935839165,-31.765497555384663,-21.485609966416185,1021.8940947970855
362,7.536712075124769,2.107666484429803,5.963213203297521,0.009614153234877274,0.003563913638200634,0.006933607402381509,-0.0455391827484397,-0.009978885207225355,0.1212584772387893,-36.29913837499194,-31.520390100940734,-21.727157573806835,1021.8931614621921
363,7.527266592011577,2.077296164493423,5.992089109478326,0.013348998057548163,-0.0006034354673450102,0.008941212424635032,-0.0894258973855811,-0.03799068667759212,0.13438321732102715,-36.239260711053454,-31.32257421406467,-21.718685846843705,1021.8883374280089
364,7.551841816633386,2.100946958331175,5.946557515945672,0.011659147869978917,0.0021217448816291105,0.007771514904170017,-0.04343782857783939,-0.025569316200460726,0.1132205113309974,-36.21273916320287,-31.185057530853857,-21.756521172812747,1021.8835593296164
365,7.588034767125615,2.1098145232554146,5.941353122538828,0.008883355017917946,0.003526654705958655,0.006398612222553467,-0.06986471206234553,-0.010952349976794406,0.07691233377286914,-36.16105340738764,-31.017359759279216,-21.880886062938348,1021.8800720641857
366,7.574985217487808,2.109770874333626,5.947582066531038,0.00800377073553963,0.0032398031957678844,0.005544054140708725,-0.01766041665684423,-0.021033561598158626,0.06485670995762882,-36.083567014781295,-30.80580394360895,-22.122265258695702,1021.8788255460839
367,7.517677154495915,2.085052419330268,5.97201952407135,0.008206947337435605,0.0040245880207114264,0.006658225847172319,-0.02138147736806383,-0.03255790022166867,0.07977524648410887,-35.99682598579715,-30.637788002321813,-22.14673202782978,1021.8809455845068
368,7.5381067723866195,2.0042580441830604,5.973681741900288,0.008543566358174468,-0.0017390705173355907,0.007759484763199704,-0.014489183319379699,-0.10897245398655732,0.08145713767473135,-35.95810506111715,-30.48025944982949,-22.13461090248032,1021.8881610288615
369,7.569170868870546,1.9074571629694765,5.9526312797139305,0.007032311928594808,0.0011662174299985595,0.00657912644499461,0.02548967812614849,-0.21013931277765008,0.07580795876755621,-35.831645776386985,-30.35462803770807,-22.120862516677743,1021.8988891943941
370,7.6321456906115595,1.8809012590141045,5.969763313442453,0.007172234586993607,0.002074047489392702,0.005180461380329451,0.04157601580003617,-0.2402500319177085,0.07337648969768759,-35.80567923807037,-30.197582949373945,-22.22307796836749,1021.912490156364
371,7.609299939877303,1.8616514297072244,5.960403089496118,0.007593863317919669,-0.0007691285872638565,0.0061856472780489734,0.047273991959684576,-0.24603794355246467,0.08152878776550349,-35.759714779711,-30.095956147469998,-22.255099584709733,1021.9284352740584
372,7.655086285335546,1.8819787336182736,5.929999498221215,0.0066927722626423675,0.0025610845480575723,0.004165661631116894,0.05803601247593045,-0.21592205734311104,0.04165527249661435,-35.71648341455859,-30.024518279301688,-22.343042957394722,1021.9429169237573
373,7.640992604796791,1.934211980863837,5.899717714502269,0.004128712184884323,0.0039709294088570634,0.0027945937796724175,0.08470216047160357,-0.16023669560546516,0.014156974465052884,-35.66052041242196,-29.957143807631827,-22.486241648273126,1021.9534862658318
374,7.588282319166234,1.9777731828117533,5.891896681723733,0.0024172164924539724,0.010314819252809162,0.0035552296516998512,0.07588777107096925,-0.1279128454358629,0.0009293713512001003,-35.5960686792427,-29.862219690309797,-22.734424201439474,1021.9598914627211
375,7.638660933939424,2.0100445270993936,5.844531773121627,0.0011405282509731843,0.0023601521435889124,0.0012220065056361244,0.11675332405245609,-0.08859262351144107,-0.04649621669622524,-35.52254348309198,-29.806102195952622,-22.79425956258082,1021.963257484114
376,7.629168039033852,2.035765445864799,5.83346311133301,0.0011245509224085371,0.0045159015181200505,0.0012635307878510816,0.09441578899119714,-0.05337920759914506,-0.055387468603554396,-35.5062397532189,-29.75036413944145,-22.795267558637487,1021.9630966103815
377,7.61965482618358,2.078951735644162,5.84645684737861,0.001252748316638953,0.006803567873706227,0.0009340864284210289,0.07443867960952902,-0.01996841334404545,-0.06500636027171751,-35.36244281302235,-29.738718273004825,-22.885881212280243,1021.9598461960982
378,7.624875819682163,2.104256263557452,5.8463706800394215,0.001134892393473187,0.003029248309556254,0.0008753552592121991,0.08215122367120085,0.011003508221627573,-0.05864634597663107,-35.3082665548839,-29.630899586499496,-22.986815975028442,1021.9516614905261
379,7.629620478065453,2.114635130935712,5.8518188643069795,0.001220564771482253,-0.003927245072351771,0.0013260292106324646,0.059459072781082076,0.03673145127638203,-0.05872870929319606,-35.25868746551621,-29.61319974880983,-22.92056681038833,1021.9421221421662
380,7.635861718084528,2.134351127425071,5.835699791429562,0.0009218032943613893,-0.000583646059834447,0.0005536469687318815,0.08298211114854612,0.051778887054764286,-0.04638149258177025,-35.21819069768993,-29.550563589649485,-22.83695851473837,1021.9324394349694
381,7.6593770381693504,2.147330663035725,5.784098066416287,-0.001970373471646179,0.0021614160080883358,-0.0005852291630229233,0.09873158258568346,0.04602823543998123,-0.08187806960105645,-35.24187477038637,-29.60715809062821,-22.804162116124786,1021.9191479019919
382,7.668932100231341,2.1188416725410057,5.812090132798153,-0.0005995381884874164,0.0034951998986225506,3.215727723578706e-05,0.09659962979148856,0.0033888633215113997,-0.038434509258808425,-35.28897662296154,-29.588019967382888,-22.81877581102989,1021.904005672794
383,7.632139116495446,2.0543504114558657,5.797319951424806,-0.0015204526339862392,0.00730141036336507,0.0011660540346865723,0.09198531578556134,-0.07030027860355167,-0.045612737512447696,-35.23564002909155,-29.635762442104262,-22.79928601000011,1021.88850230666
384,7.656062427109847,2.013541065863079,5.779927385799802,-0.0015202446171907501,0.005767126087872635,0.0006243051135527166,0.0891900143207448,-0.11589996491373006,-0.049089038878319245,-35.2492521125559,-29.581138945207666,-22.69542365992467,1021.8732710867448
385,7.698316873506762,1.9804875024325386,5.788225590059264,-0.000812875602122941,0.0008408705088054505,-0.00043789851403739245,0.09167869814065854,-0.1320182936197519,-0.05124329533217714,-35.27512446108677,-29.56636198687132,-22.637073920923243,1021.85687825453
386,7.678761539409052,1.954909530961914,5.768962154240203,-0.0007629295063278094,0.003466767099946567,0.001240619980405137,0.07705321630229581,-0.15363725311439078,-0.04816355414151188,-35.3608215735327,-29.51794923930045,-22.640929647024553,1021.8425847609094
387,7.710682841227411,1.9013657486490991,5.790221714538244,0.0016685245625988427,-0.0017034874688183032,0.0019128856668844893,0.06968508364212762,-0.19096242110221773,-0.008895228035474323,-35.372764337925,-29.612194470667934,-22.453731931951534,1021.8321527433798
388,7.772523946671824,1.8312184173566721,5.760961820238321,-0.0010541850685888798,0.0039283290853485,0.00016306688099078847,0.11311361446495116,-0.23765725360437187,-0.03241005864779122,-35.40944445110978,-29.596088682798943,-22.33038207540236,1021.8275896041325
389,7.828508976413818,1.7832602054982067,5.738738839945112,-0.001567828508197512,0.0006919908488624994,-0.002239554626823495,0.12074391117100117,-0.2718642011853781,-0.05817904219394508,-35.41104832655861,-29.56701771901178,-22.24538997123998,1021.8325654481888
390,7.822593929411605,1.7499388613406819,5.679315764948498,-0.003978622137734904,0.0012981974610523854,-0.002014492600399262,0.13226864973681826,-0.2793147337671858,-0.08023764394113629,-35.45820703286769,-29.50245764276628,-22.20892425344006,1021.8408964043695
391,7.839411226282732,1.8354247822265797,5.643708393391188,-0.004733620679780766,0.00010815721054325926,-0.0033067909710556755,0.1167486067241241,-0.17096998194707735,-0.11190132657983434,-35.48538836439893,-29.599969998700722,-22.028154065778832,1021.8516760682927
392,7.847693912833431,1.9529135763166343,5.58913374250265,-0.007325957971965044,-0.00014212845801724023,-0.004387372217449355,0.11498067786895755,-0.05309264755173246,-0.15087073778133697,-35.563181234588804,-29.709275534072795,-21.807760314542335,1021.8697257266706
393,7.844071552061574,1.9552445857517422,5.518332710139176,-0.011267688680624464,-0.00027833682396450504,-0.004620719136082336,0.0951356225464576,-0.0137514717251088,-0.20075815113678736,-35.66971248489994,-29.717932123074824,-21.619153387101544,1021.8895358152164
394,7.796673579471987,1.9447056797502755,5.583586935186352,-0.010325660637096796,0.006734325792979983,-0.005157837336086256,0.08470123159968321,0.023312125612677523,-0.14644308432815445,-35.69556518671364,-29.618766397280627,-21.725728741464437,1021.9088790499069
395,7.727934295598988,1.8580156783890263,5.682338971918456,-0.0048504604899023114,-0.00108097086747185,-0.0004201953717679922,0.04463376418199647,-0.0084148129327603,-0.06332819848317507,-35.632496136944425,-29.693932087045873,-21.614438951963805,1021.926376784111
396,7.708065743247234,1.8307696902482142,5.745172143834045,-0.0017805819540308854,0.000853679237083769,0.0008190643112997,0.013912046025925107,-0.02338345114857203,0.005345303432692461,-35.616195283788585,-29.633766975100354,-21.475430475687787,1021.9440734250934
397,7.735657516194082,1.8116690467622742,5.810368635344304,0.0029607889128586296,-0.0006352921461912943,0.0014348440971493292,0.025021629427955078,-0.04295108068447254,0.09242958140852359,-35.56802626485276,-29.62112711614357,-21.261082975080956,1021.9615443124735
398,7.728382776213919,1.800290648666694,5.840945530575484,0.0050158948813736875,0.003632154654141989,0.002144797533405033,-0.0017042586892508996,-0.0828552760731663,0.1325026744261097,-35.48416924127797,-29.42130263495938,-21.228784789815755,1021.9798810809376
399,7.73415696611553,1.799782899806506,5.848580790462549,0.005515891450362808,-4.327173159311649e-05,0.0016676666349211612,0.00586083721354626,-0.10110673965792463,0.1407619267543596,-35.130258686527576,-29.068206889422463,-21.04061581080716,1021.997448236905
400,7.740331721851467,1.8066485375287513,5.851557131975702,0.006933788782063233,0.00441448440740003,0.002367710683979103,-0.008809552869654937,-0.1305439700155979,0.15904728194940998,-34.78794262181935,-27.564672385331956,-19.726943382304967,1022.0121038772414
401,7.78110756222582,1.8009405297225558,5.810498126701354,0.005855232054840797,0.001768731120964288,0.0018482751470858473,-0.00017854147651546852,-0.14581078410750842,0.1358245565203584,-36.19218851451913,-26.68111894485476,-25.04723911067276,1022.0230268663638
402,7.749594680224999,1.748683306437152,5.7682508486803705,0.004308384747144934,0.0026197468278810355,0.003987232122225756,0.01833505246519016,-0.16746532172728684,0.1361692752141903,-35.825536008687415,-28.862050740900003,-30.33934651486244,1022.0309989421226
403,7.792106645602122,1.7143672772834777,5.738643732719702,0.002313233441490536,0.002345419886144568,0.002021456860532464,0.04416614788847215,-0.20407216622710056,0.10623438842581621,-22.499926436858367,-23.185149137017497,-25.93062298232819,1022.0396617868483
404,7.812971614493867,1.529620075880678,5.780470057837268,0.003745336991333886,0.0036726176079482993,0.0044178601066202266,0.045155600628381296,-0.3794687568886762,0.14376725321685746,-9.010028144951905,-13.084089629745748,-19.59424165506482,1022.0514873922948
405,7.835868698435152,1.3771745733331338,5.838184108168217,0.004583072194788315,0.01017906549609535,0.0038767156095245985,0.06437716076431413,-0.5088918046357307,0.1574593695276807,0.6483906497998682,-5.481542413462859,-15.379646368198589,1022.0637250925555
406,7.878225003313054,1.4332519586628296,5.774667476090259,0.00040381774026528733,-0.003623731769813154,-0.002504616374994958,0.12858427206891465,-0.4284526364769596,0.04829304589400096,7.4495703602463825,-0.11287187593412451,-12.480953922295067,1022.075181717106
407,7.974046861553256,1.4963606667447502,5.746467519390233,-0.002991840489855641,-0.009453151886471726,-0.012367768220482597,0.2241446006814044,-0.3584777175845927,0.0011929756002576966,12.38876632989107,3.512694426702399,-10.170973470128537,1022.0860682784014
408,7.945194522590471,1.5881764176684192,5.629823959931658,-0.014129937606483511,-0.004742253930794997,-0.012305169896793531,0.24462135399894133,-0.3002439536090201,-0.1373680656706399,16.01207807157264,6.0789494608855295,-8.545538910333846,1022.096796106363
409,8.127592478317242,1.7311658591929393,5.449995552426104,-0.03129884897608497,-0.007619411061098122,-0.02862361113949579,0.385525749803035,-0.2152433512722951,-0.35353075417568147,18.60984819430174,7.7124780954964836,-7.2958054996899175,1022.1046257449608
410,8.195567528950733,1.8992962241165108,5.220831520220087,-0.05429126546489092,-0.011532149958135509,-0.04612283456826964,0.5698315874918363,-0.0577075736067553,-0.6232398769707111,20.43418415780029,8.323558867602474,-6.2791032113887475,1022.1041568226774
411,8.300030615125646,1.9293861025222558,5.071903873929162,-0.0716775555107538,-0.01746151571455223,-0.05502495579312295,0.6514329859365465,-0.04909100776374894,-0.7895368613202975,21.772151827602695,8.258617966289465,-5.2559390802473995,1022.0984762959151
412,8.397281394420736,1.9878815286621871,4.99654976402005,-0.08197451214117855,-0.017413110793763176,-0.06636032279223922,0.7040008900317852,-0.010323131771731164,-0.871878999376215,22.800996031551353,7.601507822647484,-4.461538326814394,1022.0867454929399
413,8.448033941165624,2.054098423599184,4.974653441732163,-0.08352146752168342,-0.03080126674934701,-0.07312303556860653,0.7213014431418925,0.024755008479260085,-0.8818581560432911,23.569448675873048,6.545169830788152,-3.6908461050095,1022.0693208244159
414,8.409738800636761,2.054226469294351,4.923851916777716,-0.09097423255529652,-0.03260154397784636,-0.07015501311400668,0.6540148095583934,0.011647467683235676,-0.9088201679539049,24.27648891990777,5.330352162778446,-3.184933705512912,1022.0482973154432
415,8.485084042266788,1.9780702308378952,4.832325531421471,-0.09696326335453942,-0.03912720058856125,-0.07308258464063314,0.6702142910501155,-0.08302450467009452,-0.9300662854561463,24.940074923144692,3.917561586409173,-2.5106219072208975,1022.0266463710924
416,8.512692014473032,1.9542321446213404,4.792754991324129,-0.10269220583124007,-0.039158668666389736,-0.07846473315966847,0.6943640440391813,-0.07757175026478048,-0.9072050429341404,25.661928334261255,2.3273502306590963,-2.123790261096416,1022.0043727016393
417,8.47543383760341,1.9715973377957694,4.761420010636475,-0.10798167714406129,-0.027106509113424736,-0.07544444280546395,0.6299071500167727,-0.1129669194967643,-0.8750538770804114,26.44888143022017,0.5487540665509503,-1.9324201150525866,1021.9833343672439
418,8.394718916356318,1.9161123299669696,4.910896356778516,-0.09364131213367259,-0.032250107902726526,-0.0687842549828263,0.5484696287185744,-0.2029422732955345,-0.6539020074329673,27.330653188655944,-1.0038667930562513,-1.9148211928555505,1021.9654034599363
419,8.271413238781982,1.7690413448500624,5.097001367566959,-0.07074978024856793,-0.020331148784902695,-0.054952621059297754,0.41553373668021854,-0.3449327264515498,-0.3675577422622097,28.04807789589412,-2.267643805899116,-1.6190810125395614,1021.9503172724983
420,8.164939500543422,1.609882872342689,5.251274573542782,-0.05530629980049948,-0.015580224525481955,-0.035252648241788975,0.26007655024038656,-0.486311810749052,-0.14709249096009366,28.48770738342253,-2.969797635661711,-1.5657977402809955,1021.9387091267695
421,8.188627090805173,1.376823247436046,5.399615054001239,-0.04171563204439058,-0.004734645910783718,-0.026427287064489192,0.2496779411731601,-0.7618954838683025,0.08519909085073854,29.77915644823929,-3.5180788128993496,-1.3465761286797338,1021.9302369937176
422,8.009300080025369,1.311654077586292,5.407621608495869,-0.02755356102947859,-0.004048777612577262,-0.02134805138107611,0.027032034268573202,-0.7816770425169839,0.13084224565432617,27.296101642513893,-3.990286606571371,-3.817919261780174,1021.92462044777
423,8.253687532820114,1.3037884440788396,5.343006875595261,-0.04532863336281473,-0.01424788222178697,-0.0316876484878121,0.2315558821833418,-0.7906456197480822,0.1432756924347987,28.923267510629785,-4.4164127661716845,-1.6518785287287856,1021.921088034332
424,8.458307841497396,1.5979062584789618,4.8102558816827,-0.11093356863089936,-0.03631238483265613,-0.07630111965993781,0.3708200450139292,-0.5430950897048495,-0.31360218885971697,29.475659446626594,-5.019556266987091,-2.0341982472053597,1021.9185099243272
425,8.892386156723306,1.8014249176323387,4.024358704420412,-0.2191436674845143,-0.0703459796845044,-0.142025027399307,0.7864696011947094,-0.39631398887062824,-0.9374947823167452,30.86122405575218,-6.22744106382614,-3.51412310945088,1021.9158656557688
426,8.967176563426705,2.072224786055256,3.738926157788779,-0.26599967620486203,-0.06814003799865802,-0.16580046324292066,0.9000504320394664,-0.1909453514067906,-1.2699734315892897,33.26631186979512,-6.591076421927496,-6.583847547437441,1021.9108027511983
427,8.5118881487854,2.254831850885262,4.398776909086772,-0.18577653708498298,-0.04175223348689455,-0.11613841406227216,0.5464347346018833,-0.087175431564017,-0.7357872764655611,35.851428463359966,-6.5673657606951155,-9.422692714030628,1021.9012128132046
428,8.08365478117814,2.3881428782160294,4.981794827959784,-0.10287479412737932,-0.025501434765093315,-0.06212393663634699,0.18646289355760026,-0.028608374756393273,-0.2089012442591176,37.519808611955696,-6.902040863243931,-11.146933998161915,1021.8867524822718
429,7.646579186153637,2.389741836999956,5.616838410217791,-0.02210510245432612,-0.00854403895504504,-0.007505541221047615,-0.253139263071305,-0.06822582693875695,0.4260491075599475,38.29350804878627,-7.478000707461096,-11.828519345948257,1021.8681191377378
430,7.272219933531662,2.3032558198013056,6.211652840517647,0.04876723209973943,0.014005463147810121,0.039397868713688715,-0.6575444245407496,-0.17673086107118896,1.0627325947081472,38.12718872617559,-8.134901846913563,-11.63239860027778,1021.8526645442707
431,6.9330210790364015,2.0491394791933346,6.819244443746568,0.1158871295560096,0.031315546271474856,0.08276185675881495,-1.0169786989277512,-0.39937772873650723,1.7128423503986223,37.266292193691996,-8.63469334330697,-10.19133354662754,1021.8413851052308
432,6.7297901217298515,1.919942349869143,7.170623969616703,0.1620093078408878,0.04015090616349414,0.11459198527764727,-1.2850547943564412,-0.46790957206309136,2.099594958267271,35.55638510130831,-8.347159447515958,-8.259125766830055,1021.8361621467579
433,6.560443711023871,2.0020336958320812,7.413015376116839,0.19513264995776372,0.050176213723193856,0.1350383588013198,-1.511981676327785,-0.3016719854762938,2.356319200507532,33.38299930150495,-7.295586506569142,-6.155496207540308,1021.8371114360389
434,6.414106627956977,2.248169896248962,7.555263490868388,0.2136972260545767,0.05199414321732397,0.14734658919899707,-1.707172413822695,0.0171028808357514,2.4673414909942024,31.2433980479103,-5.180749283883217,-4.474670928530151,1021.8429158946085
435,6.545796028817838,2.5630812666936245,7.265179789341658,0.18896131049622128,0.04221450277558721,0.13051699359502025,-1.6004994938319268,0.39773508749795344,2.168917671398477,29.218970670230956,-2.6676783395844534,-2.977884922369652,1021.8478940915968
436,6.87954190523594,2.7322866091383413,6.731934012951358,0.13980580415565821,0.02939420613353247,0.09675910778002628,-1.2812967785204659,0.6067964706316216,1.6417010353806543,27.492636069301216,-0.41853365059260694,-2.07879796610495,1021.8515273977448
437,7.136899202342276,2.5587451196384716,6.4105105257172905,0.10447640333096309,0.02237519675297616,0.07351849748817926,-1.0130714144656885,0.4643847183452823,1.3041131622984719,26.30973434514494,1.1466905236113614,-1.519302936364224,1021.8527159776238
438,7.367339948351831,2.371632557988785,6.147668242482917,0.07796162515385097,0.01575033678991452,0.054530407285143065,-0.7673772963264486,0.2856954845216221,1.0296508142704006,25.251404331030955,2.487837456315033,-0.894156790606539,1021.8522540165466
439,7.573946301351079,2.184784109499524,5.893158314028819,0.053812138161175006,0.010763281023223893,0.03797302602974173,-0.5312335752392526,0.12954111202305157,0.7754352738089425,24.741475279269,3.4052690836667883,0.058736612519501574,1021.8505874184053
440,7.722933879011982,2.0385410701128888,5.73580798821265,0.03751491133654624,0.007055493476054803,0.026671787319164555,-0.391191115558039,0.009822764724663105,0.5957003785610503,24.745729483474133,4.269612482135179,1.2027955589215638,1021.8471244430467
441,7.819115700389084,1.864423137546168,5.623481827041756,0.02491803578714947,0.004512324428721577,0.01831785772932764,-0.2421668093101236,-0.13382569702343983,0.47256112306017845,25.69759002816429,4.947137635324956,1.8024504652112732,1021.8445970119928
442,7.976174907460425,1.527098610575066,5.461074233706481,0.007233293350648318,-0.00017381728999054692,0.010950151968257056,-0.088236606061247,-0.41614981950688057,0.29474761246422077,25.451108554207376,5.318432138028487,1.6042330168503902,1021.842875843527
443,8.211530384256172,1.2482447820241633,5.240032383324079,-0.01717513723480904,-0.004156496356276627,-0.006158249943532819,0.11544051766636501,-0.6441540091017806,0.04765895365511841,25.352363883583255,5.248397352990655,1.5892587753202736,1021.8443609344959
444,8.40375005493147,1.2027635969307353,4.97346379418306,-0.0505851602308503,-0.010615196294899728,-0.02696402518022477,0.30971361014252186,-0.6518633797001903,-0.266151509481974,25.436183647203578,4.738731881666659,1.3865954343680469,1021.8510100368787
445,8.588759824775885,1.0154510764473117,4.749830437536837,-0.08678958003504478,-0.016374037767230218,-0.051057446320587625,0.5125365321120339,-0.7777289163365642,-0.52188581620664,25.789884364930973,3.7460647413630026,1.100997333130608,1021.8640453342947
446,8.69314878743852,0.8585645849717377,4.659689331015967,-0.12037792624063764,-0.017853321020891932,-0.0736953938157035,0.6426523470839516,-0.8711120389964914,-0.672637260901795,26.50788539699001,2.217915071421519,0.3733254539650006,1021.8828962041349
447,8.693288053442718,0.827320938158016,4.69390221546962,-0.13991950385826393,-0.019949752947480536,-0.0904967766453566,0.6819827287895359,-0.8393857974433132,-0.6943179173020809,27.764584255260974,0.3873666985655839,-0.7505227259670828,1021.9055376709474
448,8.66119894316624,0.7363185815588393,4.81740820301439,-0.1443341443023915,-0.02723346133261731,-0.0991058087589913,0.6429352105742652,-0.90122872685174,-0.5925816989766495,29.1491147812315,-1.4074342657444103,-2.181962260724986,1021.9297918442325
449,8.591682104249738,0.8422438289230856,4.930344744301065,-0.13837491310784908,-0.0279078198238346,-0.10200777977244373,0.562597874052412,-0.8222529312854315,-0.47117748927950653,30.72843842267715,-3.1649214862348387,-3.547056542473043,1021.9534502762563
450,8.5018497282514,0.9109868521819121,5.063459869709199,-0.12858443398401465,-0.026523622111058347,-0.0996761250473642,0.47268302762589076,-0.8287063288068561,-0.3221791658627703,32.31936809818025,-4.699968958956812,-4.944851604030015,1021.9738499673385
451,8.382530923777425,0.9496761751258557,5.221325503636054,-0.10915045632882954,-0.022205016756482912,-0.08468410722900388,0.3661573775372616,-0.8756838579586411,-0.15486973279511057,33.889987465291064,-5.991893599524905,-6.27125159824449,1021.9905110500608
452,8.264282664313065,1.0454243851537464,5.3466008280184925,-0.08560146782841327,-0.018688401987588327,-0.06735429431000632,0.27374783637588396,-0.8435126720756564,-0.02501022560310509,35.18618311270403,-7.011902656361794,-7.544226198111389,1022.0037016837374
453,8.15440349215596,1.2230269720017408,5.43527253285212,-0.06505135296569231,-0.014186963938499943,-0.05254406576082926,0.17811925568170656,-0.7130916093468587,0.056459183382979186,36.29126025303159,-7.818003843639153,-8.542916379264017,1022.0133287857877
454,8.052550641001677,1.5131529968462618,5.467204177967633,-0.050261181453380474,-0.010977652755841921,-0.041761520083778876,0.09123691389545915,-0.4686895765234389,0.08563369786074472,36.79777610029733,-8.48916437161709,-9.146611682184092,1022.0189225631034
455,7.957022139725493,2.151959300124969,5.373723718521063,-0.05594784920427014,-0.009760869873161607,-0.04711982618582503,0.0034478123447649195,0.08527521105400004,-0.010134260681453164,37.34572611951948,-9.176681694024039,-9.691959181848883,1022.021572643416
456,8.023267206659433,2.671963534926922,5.087162366232077,-0.10717913675576698,-0.027652983802124,-0.07849240544685927,0.06786249789731713,0.5485930259920363,-0.2788598986484961,38.051411926073456,-9.378662579461812,-10.626627657450399,1022.0187868888926
457,8.215440688310265,3.190657376325661,4.60522732030323,-0.1683007348330369,-0.04374852124177876,-0.12103435397040493,0.2486345567204492,1.003138877555756,-0.7207381985589911,39.19130364465136,-8.797138942709164,-12.356111736612503,1022.0107146512983
458,8.281946538327787,3.4907421491335864,4.378279594337265,-0.18470325775220298,-0.04309594580869202,-0.1301875957648028,0.38120502070275164,1.2487758771205606,-0.962114103439613,40.618656236961975,-7.190814905382728,-14.622730521250615,1021.9949916539713
459,8.113758811038297,3.6602797092823884,4.546027285465586,-0.1518701834058752,-0.03479554953382734,-0.10667968944675431,0.26001677814544294,1.375011524113153,-0.8491922250476986,35.49998610854274,-7.173731549816982,-13.876070842712245,1021.9696448811867
460,7.92454922658827,3.8665976248229863,4.783209178157652,-0.11279575667420921,-0.025635500260254983,-0.08085187584055006,0.10493148257074633,1.5141646163393778,-0.6654237055478882,29.082798289260737,-7.801244126147452,-12.281354096983502,1021.9344297809112
461,7.807523064126222,3.8426501887784106,4.943335499335771,-0.08769428105362294,-0.017838379096773396,-0.06152412075901803,0.06187435868790562,1.4149449466781436,-0.5446512162247086,24.46482711202637,-8.198630725858244,-11.208567822919315,1021.8900339891776
462,7.843800683959965,3.729579368434176,4.986277973184987,-0.07408816556012221,-0.014741037991445393,-0.05381890540650403,0.1250061518971815,1.2179996898153633,-0.5509234048928653,21.187887202982626,-8.354668040726281,-10.4977802139107,1021.8352687352993
463,7.883348482193538,3.6264709008970906,4.99134098054619,-0.06549241360268768,-0.014473664896018701,-0.04775622043778981,0.1913203529403718,1.0603998692357064,-0.5865370444950686,18.82232196615796,-8.358368571079252,-9.980381336877988,1021.774130835126
464,7.968170089418726,3.3612155456320165,4.960377345245991,-0.06126516135386853,-0.01553598705999872,-0.0444015664957682,0.3237842294378046,0.743986977997759,-0.6464025679454689,17.03003280250656,-8.110454581658626,-9.604986834170079,1021.7090426838539
465,8.043095289803436,3.241420416027172,4.908879060994019,-0.05749872231274741,-0.01790160032685637,-0.04316133967307202,0.4336794579331876,0.5874121447076521,-0.7166874924380361,15.891098419266095,-7.390556896245023,-9.412047756222703,1021.6452143118648
466,8.11277793226737,3.0370114301070474,4.90929501260488,-0.05431736795610865,-0.01689760089841855,-0.04078329703022036,0.5589644695843293,0.35120918577569815,-0.7176524160569331,14.952525460163406,-6.566145802378735,-9.310918982376133,1021.583789620188
467,8.199141114523915,2.834543547653428,4.868142609614085,-0.053608143446890744,-0.01432903199187741,-0.040141992479764854,0.6651839617865509,0.11900166248834931,-0.7666182386991701,14.26163555813524,-5.844279309964016,-9.160157125517706,1021.5231501893236
468,8.304528908969834,2.659196419382486,4.79342393327049,-0.05462290629183032,-0.017346650586985018,-0.04179084374690273,0.7741651377851141,-0.09113124489564745,-0.8624460536530988,13.651615623033287,-4.9695182742186965,-9.210753137373166,1021.4608580591557
469,8.370792395022349,2.563677679725545,4.711185981204897,-0.05756396743755135,-0.013287147703343747,-0.04338167739984146,0.8895834541960876,-0.21411469766137087,-0.9609326834281291,12.76017237052412,-3.7326185343883003,-9.522330783117706,1021.3960610757571
470,8.33206322408193,2.578564781653626,4.787762735343875,-0.052574490992753575,-0.009812191103838073,-0.0410838899822117,0.8550824770787909,-0.23395966492239353,-0.9150500970638558,12.037631999079117,-2.615491770951728,-9.891526724866804,1021.3377733667204
471,8.320123148680127,2.6956504314215843,4.803927433419204,-0.050260665714434716,-0.012936983047459657,-0.04034187019674768,0.8541042312353722,-0.14073755267264665,-0.9326455750488989,11.542813250368166,-1.7011778275576566,-10.130215462258457,1021.284236411142
472,8.326861438558812,2.784859862453076,4.74234634196416,-0.05128671094567673,-0.014170919894862341,-0.040297650917077606,0.8699234213929485,-0.07530776475433966,-1.0042789872669935,10.611690834873592,-0.6904642348095238,-10.578807908883645,1021.2194809367087
473,8.345454304039361,2.9037329110565415,4.615532325651788,-0.053712321525578796,-0.018214951704764393,-0.03998244660558001,0.8722237797005931,0.036949775602024976,-1.1261922976440435,9.353989158709922,0.45278084098484506,-11.344594847696197,1021.1470944879297
474,8.361735244606566,2.83075466552862,4.528996085837754,-0.05685261861837809,-0.015698701030069193,-0.03882972308909351,0.9465958509694846,-0.028151480620701164,-1.189179907707658,8.291936943751242,1.7660826718672287,-11.748585612930837,1021.0718180292366
475,8.345513818198262,2.6873219946473426,4.598400196044219,-0.052807381694900374,-0.014870440436714507,-0.03571891480451811,0.9134686398535987,-0.1611539833293191,-1.133523243021156,7.779524799959107,2.987449795631854,-12.155057981518535,1020.9943499171153
476,8.318379992171025,2.5929311050116715,4.703107719372284,-0.046488323766097774,-0.015918322027885675,-0.032259062971887215,0.8733216267424448,-0.23710985626606068,-1.0206836553191956,7.346450941229705,4.0995895639563855,-12.355174827521468,1020.9132209484573
477,8.174807091901743,2.469076970257708,4.8483410495032215,-0.038992487324974574,-0.012601028732814979,-0.024112761287212636,0.7435853130149661,-0.3545179955458741,-0.8479726857025941,9.33303867379766,5.473558887207188,-12.016670373907175,1020.8352533393232
478,8.087652044979658,2.3716115767651864,4.979121537089539,-0.03206285664259122,-0.011230374088695047,-0.01858736440336204,0.6070406947316136,-0.40631813619154744,-0.6973871217032851,10.708803786019313,5.274237042876732,-15.95272637688424,1020.7682907080411
479,7.978299114077063,2.2105157140346794,5.165386293113557,-0.023934551484702766,-0.007366677120239364,-0.01165730083189041,0.47130441701410186,-0.5031284622056671,-0.48811193393459634,10.223861449488764,3.3746968853628725,-20.216411817124406,1020.7090098690322
480,7.933752220444976,2.057532528807161,5.326954318166376,-0.01730695808896589,-0.0017727913328681828,-0.00809381787667087,0.39509576271169033,-0.5606485122471788,-0.3312841616151907,6.806770619032335,2.258623608682205,-22.3905972158896,1020.6615804693892
481,7.8965605542970865,1.9663673826433627,5.421825873491077,-0.012933420895669873,-0.0009660878070001238,-0.00538871911922436,0.3036880934085803,-0.587921947367546,-0.23740854933961253,6.093431050995054,1.5078827131891321,-19.24753407582214,1020.621069608142
482,7.8425348024271075,1.8486947156374651,5.5494406640737965,-0.006202708114418683,-0.006932072835608415,-0.0010685991923029227,0.17196760635538627,-0.6339706179551845,-0.08360002598954178,2.9644943275197018,1.7876926256356658,-15.982703950794605,1020.591503007709
483,7.847953286150905,1.7698945961952954,5.561987161286791,-0.0053229498245484005,-0.002067134229407736,-0.00048367269262971995,0.1273765816055023,-0.6360008727452817,-0.04095078429305821,-0.7311468729178832,1.6178592820225615,-15.378000294970548,1020.5732218049252
484,7.828842143367913,1.7807673562284732,5.553371864181403,-0.006220132486188346,-0.0015898679132367829,-0.00012435760895522854,0.07914713471585011,-0.5435676901182327,-0.04829937112256528,-2.019532089221063,0.28059162548542216,-14.352530551535088,1020.5686186659318
485,7.774659279821249,1.7734134677793683,5.53478724929312,-0.0074936733512089605,-0.0007933644919728289,0.0022772354023616404,0.013372723699271949,-0.46583265473940416,-0.05662744159181474,-0.023745638436656114,-0.22097487434622753,-12.459362492392232,1020.5701851218988
486,7.8147318488249224,1.7341322152742296,5.608268562880595,-0.004130876426182246,0.0012261874998270757,0.0009302630777754516,0.041604941538632756,-0.4414451625620995,0.038492088789295734,6.47312801764449,1.5989802871957535,-8.014001879971067,1020.576254418423
487,7.76653498779621,1.6757134504449596,5.649310981261538,-0.0012941580200836371,-0.0015073631915128805,0.004597113607085824,-0.03696486641495171,-0.43236442682241255,0.08690477580148763,11.082815267867481,2.797852738236259,-4.948802610922063,1020.6043870225067
488,7.7401406147713185,1.6678207392414284,5.63150586868804,1.6823615777273584e-05,-0.0023947628079126894,0.005797592605389621,-0.06411520673017457,-0.3614259063959588,0.10382344285031422,14.333410984711726,3.642439676009394,-2.7215681684751303,1020.6431193125223
489,7.709083925907434,1.702584553342485,5.665899351452583,0.003944291801145436,-0.005731028723732889,0.008848041501399114,-0.13323522979436508,-0.25833100937072084,0.16290099666697314,16.77572923555354,4.285168228302747,-1.2466078389793573,1020.6917930026292
490,7.671054490038816,1.6928699201175927,5.703670056912444,0.008131676996612394,-0.001515524898849408,0.013088134844064228,-0.22017080162727634,-0.20802713690796945,0.23584934714022188,18.618356321982557,4.6377575567913985,-0.31174758883736564,1020.7455786722967
491,7.69832479889466,1.70423324856604,5.819320433167502,0.015700453909232925,0.0007058346141679472,0.012959835291945158,-0.2299205646343762,-0.15628011991901491,0.3722076542915832,19.97579340385971,4.654524014416085,0.5205628647788225,1020.806908543422
492,7.688311601604995,1.69103459825054,5.889174328204163,0.02025169104022262,0.0006600493637972967,0.01419914996471623,-0.25285027272682226,-0.145136350438556,0.44762908327185,20.822183254268786,4.572841165759494,1.012947344305858,1020.8771660315412
493,7.769526859664544,1.689057620716234,5.889039010301046,0.022162255935021583,-4.686856513382151e-05,0.01152091406959043,-0.2034487648904354,-0.13394397153307858,0.4680517441639396,21.481521503488153,4.342121372815525,1.3831475214703364,1020.9544131394616
494,7.750822136289929,1.684815524981345,5.930710041306853,0.023986063021551502,0.004893748934902832,0.012617861253478023,-0.20811689614076093,-0.1480031484523968,0.5004587811074489,22.068245927493,4.101835996058607,1.5471953461160473,1021.0327014002672
495,7.77151573967504,1.691248583321296,5.984948624670886,0.02819926089625216,-0.0002724871607961603,0.01278379920368802,-0.19376211237710864,-0.1821142285577841,0.5515085190289287,22.492002770415016,3.579055369756532,1.790764757831497,1021.114325749675
496,7.789128502858269,1.7042305400783442,5.926193936289133,0.02620516259507551,0.002332844397816261,0.012560674295707706,-0.17711392792161237,-0.20073065894553388,0.4998339695280178,22.750907917174327,3.0524679677630067,1.9476684848071504,1021.195169523392
497,7.793829491326792,1.7866483819975008,5.8799455923322315,0.023975706922820795,0.006747296882550468,0.010720628559907507,-0.1359088839659156,-0.13906098891467364,0.4451494957513547,22.953561161282465,2.558449225181559,1.9213516610768682,1021.270435172778
498,7.7662242936644,1.8646308631621276,5.915530052196286,0.0238023098577759,0.010608636487067993,0.01054226823934197,-0.13926308899397813,-0.11241785803276311,0.4333192525127083,23.32800469821767,2.098734634086293,1.8045557532489631,1021.335631924712
499,7.7200363045124885,1.8710420125138778,5.925585843424401,0.02156750388204951,0.008429573452067764,0.011126276431593394,-0.14200147966527418,-0.11578460736089227,0.37396179419404635,23.617721467567524,1.501150429119138,2.231009527964602,1021.3930879577238
500,7.7322977266936865,1.8520309772058225,5.924268555574565,0.017877540916144144,0.013725748591536847,0.008755891967015055,-0.08524133964298117,-0.1659251500813983,0.2954373779917396,24.186198529591394,1.1657184235436835,2.0864994816834486,1021.4388556733105
501,7.745376314650249,1.9062411777802115,5.879813015881602,0.014231889224154274,0.00691962782595396,0.006270876288813048,-0.02787353004117525,-0.11585165960604427,0.18443708871207817,24.502829807689473,0.9433686502558949,1.8238542274150227,1021.4722589562284
502,7.8192352577208935,1.937768697240147,5.767637498683993,0.006872848819194069,0.004998172512233522,0.0011622341053906683,0.10281041526576394,-0.10228728259074533,0.048190135004652246,24.671190800406414,0.49216683062628225,1.4843404263797955,1021.4966381347691
503,7.840761267887308,1.91184376357635,5.676313514106041,0.0009248623772891967,0.004189966725409953,-0.00048085975483272924,0.13443579618306423,-0.14713621869835325,-0.07400943453025552,24.97052893978034,0.3934715540758606,1.3776762350657492,1021.5134004808384
504,7.914867913939709,1.8433124410102129,5.650513899012952,-0.0027208668874377628,0.0034731576498226897,-0.005230937388799427,0.23625890682465286,-0.21890443568328571,-0.12477990202237266,25.3247398319845,0.45359199087882546,1.5253384786057242,1021.5238000143129
505,7.894724549644214,1.841259570652644,5.539877208092049,-0.008685840916038459,0.00020229954234581666,-0.005677317429374927,0.233903315811623,-0.19668014778558093,-0.24885965118453734,25.223280615153257,0.47999905081242566,1.6514928626302072,1021.5302770056257
506,7.91469330216144,1.9489135388658096,5.569458734084627,-0.008668448635445102,0.002292536774162707,-0.008847540598400197,0.2601104515787179,-0.09430565540645364,-0.23546460991611987,25.38527249836787,0.687762423407738,1.4854379921246297,1021.5347570045674
507,7.813927101833352,2.059351934549399,5.59432583097595,-0.008441418663062925,0.0012202003580608124,-0.00623951606219844,0.17137551891176706,0.010018408920301855,-0.22367345752638915,25.430456673337254,0.7588194589299918,1.5070793273383012,1021.5371197895626
508,7.75404999889999,2.1487834773261545,5.644221342350916,-0.006409223643539276,0.0018994624720131434,-0.004401938532340556,0.11703688337323534,0.08074071627017163,-0.17129949208344392,25.456762169541246,0.8413826655022442,1.4756410573598266,1021.5363501713659
509,7.705537182240233,2.205859047595689,5.728648553254364,-0.0024193235932468303,-0.00023005592158672973,-0.0026196622833907636,0.06633197626423917,0.12628438613685133,-0.0843964609592302,25.57443061277942,0.9580436649570633,1.5260595031432758,1021.5334594536033
510,7.7219178290199215,2.192207224534237,5.6791666185251755,-0.0048654805009561075,-0.0002780477421886683,-0.003205976798260992,0.08677328633655501,0.09135362474487459,-0.11706645216754855,25.536193952839614,1.1001924113332002,1.4879573381689426,1021.5282580135124
511,7.716256149251276,2.1965639045651413,5.685511414106498,-0.003496947486438274,-0.0028318125791210766,-0.0030612655371661927,0.08199442050898015,0.07853708844773385,-0.09027783349567448,25.625447227161473,1.1175160869155931,1.4864905859534716,1021.521741031563
512,7.773892669500382,2.207503100546783,5.6373938604104765,-0.005222323707085457,-0.002694106677350223,-0.004758638149390924,0.10447278671080212,0.08245762828603447,-0.11981565019561399,25.560350180554288,1.2158980114509261,1.523136099416735,1021.5132953995405
513,7.819167839164889,2.220228079734472,5.567838049942312,-0.006921310613827744,-0.005275513167337701,-0.006196727151697596,0.1306666885011143,0.08210522941845398,-0.152955727622958,25.429610546088256,1.3161230059561433,1.6241920364217792,1021.5029058941623
514,7.89388089533562,2.219862489842672,5.44851897237528,-0.011853092829629803,-0.004495487739597771,-0.009217880496992875,0.1839999097448477,0.0715956588805796,-0.24238861417952234,25.20651765724742,1.5007632001671367,1.5891749118579677,1021.4920253813218
515,7.940579890700399,2.2284073980416723,5.355691490070476,-0.01575845221794206,-0.003886737226073187,-0.011613956744877287,0.2292663468351687,0.07973318866137322,-0.30025388604403774,24.99882933448222,1.7126929610662707,1.6492568560283798,1021.4774476491127
516,7.995942041907702,2.2392895173379155,5.3359070272351286,-0.016405058873282457,-0.005894488150359664,-0.012879048141675608,0.2639477001835079,0.07799908099736376,-0.2908723120518769,24.865900132890747,2.011270005883494,1.6966658690573098,1021.4596352642336
517,7.945224995540046,2.195390151068665,5.30481049672086,-0.018318031987970475,-0.0004776065473904179,-0.011035483362513273,0.19296676692813636,0.023178279275216686,-0.30325666155682207,24.711351447974174,2.3923863490883415,1.9892715520154545,1021.4466350057778
518,7.95909024903409,2.147985140513415,5.308347885482467,-0.019192243686422705,-0.0013509092608800762,-0.01170402812358608,0.19256555277225146,-0.01513481133606135,-0.3043080490803705,24.36684884915885,2.8103125725412923,2.161254488627443,1021.4371468478997
519,7.969733927531329,2.072244500031204,5.313589891391003,-0.020023653613419817,-0.0031163635175342954,-0.011539997771974252,0.1932532092879852,-0.0661758582509065,-0.306967355309402,24.45709291610348,3.154552724674837,2.4198515871196022,1021.4318296744285
520,7.984453556774661,1.955998724282771,5.363274589583444,-0.01900596775282859,-0.004082743860502071,-0.011762929501960699,0.20239830451699442,-0.1423042563805075,-0.25856509652620213,24.138809156404744,3.5184198161913813,2.3580242768534267,1021.4326691377339
521,8.007580729541122,1.878547351546607,5.397188749954225,-0.018030614791055107,-0.00486404918296544,-0.012384846424795315,0.20702645755583798,-0.18815117661649167,-0.23251108846932683,24.14238457747585,3.905229332468017,2.2206900639228855,1021.4451538295434
522,8.026493242818935,1.8571690118379522,5.428395716337874,-0.017222878123890274,-0.003546948206814974,-0.01385777798875775,0.24131942220680164,-0.1885111236388461,-0.18817086155681806,23.995206241928585,4.278876407160351,2.0957919921509114,1021.4725890493775
523,8.051407535607582,1.8610619681304281,5.417518310024932,-0.017800108907354915,-0.0029992768426073536,-0.01561142568501016,0.283876829634081,-0.17402867950751275,-0.17884866198730662,23.890632695973125,4.515390349826058,2.1014385603831194,1021.5073289636348
524,8.015668373153874,1.87809093882646,5.4842120170126245,-0.016252713959865148,0.0010498168523661272,-0.014734826152513501,0.2423897101627231,-0.17055323520755494,-0.12348538420922964,23.85848994873365,4.721368891744552,2.1913219036280123,1021.5435663769385
525,7.934209247211005,1.8958081004274874,5.5447099417225925,-0.014887642249661532,0.0010507057623690514,-0.012440769147817308,0.17299081053052628,-0.15890011001998883,-0.08285983238399766,23.809615557508685,4.898363394866016,2.0834624306316605,1021.5764653582755
526,7.867481773320426,1.900056534960842,5.604349816239668,-0.01257985758878818,-0.0014962599134408882,-0.010098588919388864,0.12025948432005848,-0.14966230368015998,-0.02876839124621875,23.691580642871028,5.125628789959722,2.036682098155785,1021.6042483964702
527,7.801352595219449,1.89868544651816,5.688633990362488,-0.007641405326099406,-0.006432687911524949,-0.006647726196575987,0.03848628152469906,-0.13771561481709843,0.07131328199506165,23.479071927187555,5.177801560818757,2.200799202021888,1021.6245670082124
528,7.783220784706238,1.9038420597235217,5.724805747119049,-0.004513253733264994,-0.00466853391587666,-0.004858304743067644,-0.004369691246115255,-0.1294748089055246,0.13838955881313747,23.239839060638147,5.182060272456023,2.370912178030739,1021.640550528113
529,7.804797577366267,1.8509824211308912,5.699784434784254,-0.004459646202626064,-0.005129112609356624,-0.004028231335637079,-0.008501745724246921,-0.17480821234220778,0.14009129733278897,23.037710378086793,5.21913893216296,2.539709681746799,1021.6537618346691
530,7.805849775186539,1.7717604028863325,5.709260869914172,-0.0036130352783947414,-0.002584501691834207,-0.003817589792778019,-0.01159646730186437,-0.23863749892290198,0.16704342469624547,22.831811254353845,5.305457939146919,2.596801972956674,1021.6684537846045
531,7.8537625389077546,1.729142248170335,5.686408239170397,-0.003881146698736756,-0.003349912048866998,-0.004407782209715638,0.014444431669042492,-0.2781853985650295,0.13998269194535165,22.83554441176225,5.311199947923595,2.6959002226898234,1021.6855868795956
532,7.84740803020214,1.692661647143123,5.696441997529282,-0.0033777816111545266,-0.0005933809036889693,-0.003065554484743542,0.008843590691614403,-0.29235806416469856,0.1541174825359122,23.024163402892366,5.444773802069222,2.789882327793819,1021.7027288640793
533,7.837160486552841,1.6649818491667345,5.724842056558191,-0.002235322222523664,-0.0007221755556467887,-0.0028305305838872696,0.008127172447231846,-0.2865726592105257,0.16848913520825998,23.295194768380533,5.565913161851951,2.940319399726434,1021.717136061422
534,7.822577806402776,1.6333420582755995,5.7510677955809015,-0.0019814843617522006,0.0005380009571002996,-0.001866823344520918,-0.006008798963961552,-0.2932228726847252,0.17133593441793904,23.505579498244128,5.654517502913713,3.167167215449365,1021.729547291358
535,7.826962299405718,1.549470916272563,5.794144862417142,-0.0014819557612183853,0.0006999871276059622,-0.0018119250637579345,-0.0031099931336592127,-0.3432587748965999,0.1733841103041538,23.566988805035578,5.804001147704783,3.2375228801115434,1021.74112016445
536,7.835550118141367,1.4072956250560384,5.866811966779052,0.0014158503182921584,-0.0027619464949311125,-0.0017672173706079625,0.017269774300047443,-0.4669620739724459,0.20974778404286595,23.771252853649358,5.829366199929754,3.344150409503194,1021.7531528776996
537,7.826577106694815,1.2731405184298024,5.883076920474283,0.0024767661540284524,-0.0014038626512807417,0.0010145219071514863,0.004656037309104246,-0.5669255816155013,0.23614906174640535,23.752557236709837,5.837280589398491,3.419817723041061,1021.764181497777
538,7.831502467718206,1.1551557775206738,5.919977319609846,0.0050491638511788684,-0.0016307348331979442,0.003117779322819605,-0.01855104152832785,-0.6298590080428494,0.26502648755566366,23.868834230499534,5.855325744346389,3.4324054694585375,1021.7774041590895
539,7.819860478180786,1.0397923391378672,6.0011064559308895,0.010495660803223407,4.181556336097913e-05,0.006003218786781207,-0.038147092743875066,-0.686624322341056,0.33533100314275543,23.865432005153906,5.674804110672579,3.5313550145806953,1021.7930937082712
540,7.83044211522023,0.9442129942529162,6.038523675425544,0.013820524169996866,-0.001750761976146932,0.009098894669592631,-0.07179308350695648,-0.7250361825683939,0.33857472998546695,24.031298321091622,5.521940107150522,3.562426349981974,1021.8105631683679
541,7.867391540494133,0.9697266496232237,5.952594695256158,0.011001994176564618,-0.004150550059122904,0.006631914118321163,-0.01886513071624403,-0.6379816443923508,0.2664131015469763,24.064215027552468,5.352734284170112,3.4440321162161656,1021.8301148682478
542,7.988258826195935,1.0034600111182013,5.7492807539796225,0.001547451049529313,-0.012715287890876644,0.0006964107446374513,0.08211859382516234,-0.5473980051488679,0.12097078836580985,23.92443151606249,5.3181866032319745,3.4696029327439337,1021.8522166536909
543,8.120413639459935,0.9752186019316249,5.580596833322865,-0.008301229505323955,-0.008566253225983287,-0.005846323714427508,0.14339106073059024,-0.5444016324194231,0.017412130286875535,23.58114388929611,5.365411578461796,3.5933228290926866,1021.8749844321602
544,8.132437568437114,0.9666318263303426,5.562935965098523,-0.005730052951684663,-0.004663828342278851,-0.003882187892388265,0.115164111199335,-0.5217909057270723,0.04541939421489198,23.424863465383677,5.4744479339638294,3.7681813644082514,1021.8982174794742
545,8.135859798770312,0.9636679066082153,5.548532241343913,-0.0039533466094911944,-0.0026062738953866087,-0.002091877955901703,0.09420030624854747,-0.48583212367555617,0.06526046858711824,23.224228319905905,5.587916903427407,3.8832447852483805,1021.923871924133
546,8.144935586099873,0.9839554070939889,5.534282996648535,-0.0019206693591803745,-0.0021901027607076923,-0.0013588613960335723,0.08884157546746149,-0.4204938331664122,0.07230323234146034,22.989031401636222,5.57764474613599,3.8461962911558554,1021.9518709344273
547,8.163904583039056,0.8900057798018821,5.522430065723321,-0.002932602215425002,-0.0024097056596946165,-0.0015757186631525637,0.12109346110553265,-0.47473793349970994,0.080049712424886,23.014750997825733,5.661054214793259,3.9886073139828717,1021.9795814151063
548,8.182848388106216,0.8224846067733039,5.521283201208511,-0.0033892144791773373,-0.0017914670315274978,-0.002310542193164438,0.12297033320598424,-0.49695055538887106,0.08075369576471375,22.863873090576295,5.765717820536308,4.027165794100077,1022.0059893428294
549,8.192207477318474,0.7794000046100945,5.52815875976872,-0.003688711746435543,-0.0006975944850687705,-0.002359519810926592,0.12710811874220182,-0.4998975336492039,0.09167249100386142,22.880385297170008,5.811700117313949,4.090470722734148,1022.0273961582844
550,8.199261375603607,0.7470766329440844,5.538184042268679,-0.002587618081876435,-0.00036058738603504025,-0.0017632292155666319,0.11977856710674045,-0.49339499478508114,0.0957827417867936,22.763152620089272,5.9700075714331,4.15228897733896,1022.0451529430168
551,8.177159167292707,0.8515197993664748,5.532303150166772,-0.001950111882962577,-0.0008837271605528455,-0.0013880978073285226,0.09435005787326584,-0.35048375139004706,0.08696886354907085,22.573803304473216,5.932826295517939,4.2193006682969,1022.0614312209575
552,8.160380037630762,0.9257700731704721,5.523904840246897,-0.0016530479738533113,-0.0010007891505786706,-0.0012191726884821987,0.0773359473615566,-0.250992760740318,0.08270220764261603,22.55134660689332,5.846841693571476,4.34839478861084,1022.07382700889
553,8.099660200745058,1.2203829902185008,5.499237151720151,-0.0010631964544309033,-0.00010378293615116686,-0.0011185987020883427,0.02024283870256701,0.049977708570254076,0.0561417432130599,22.55511461247025,5.7420748201667005,4.416559843897459,1022.0839457074039
554,8.057322497370407,1.4304190360571956,5.485038125353851,-0.0008337347955828993,6.547859801009877e-05,-0.0008694440768896572,-0.014742170781664718,0.22663825094810375,0.03733965154005245,22.479736743256748,5.682728956701123,4.360274362245268,1022.0913307766583
555,8.027207110716013,1.5839624545153164,5.471836212646036,-0.0007050744532187018,-0.0004090307391023005,-0.0007523711610506738,-0.03516835848124003,0.33232666828983465,0.02294338897766416,22.416715602931642,5.6454537941411145,4.321744378924684,1022.0946802337103
556,8.004658196971198,1.6964247053363393,5.4630881177532595,-0.0005707730117589843,7.272677126968978e-06,-0.0005619742638105804,-0.047863309374387514,0.3853178456931153,0.014237538211661434,22.399717977412,5.6443927052723755,4.42977553612001,1022.0960944383412
557,7.987924869448708,1.7778507176789926,5.4552388437845964,-0.0004942294116551358,-3.0070267574118863e-05,-0.0004826876220858291,-0.051289752933603154,0.4058019730607191,0.00621437654871472,22.49055239785517,5.665172999661788,4.487509515009467,1022.0953127579996
558,7.973027328896875,1.8519822845095286,5.448253063739505,-0.0004314949813061565,-0.00036460103141691956,-0.001186787106554169,-0.05612631026577753,0.4192964924401756,0.0001568695254231629,22.351627785715067,5.5817584449902435,4.417225106825692,1022.0916711176415
559,7.921178079309399,2.137072201351558,5.42197968954763,0.0013000696879731882,-0.0010738480817983008,-0.0019521647031261673,-0.10134789716684184,0.6485118316083966,-0.027800102183517937,22.076287130924573,5.383988476795277,4.2866564009158505,1022.0852618998895
560,7.813185298599827,2.7523480264343463,5.345965123825524,-0.0037988851655420307,-0.0018205889982717213,-0.003114975377788676,-0.20162143309768465,1.1586881995615173,-0.10254241602128206,21.850404085629492,5.25594381125833,4.102382732172888,1022.0795537963343
561,7.83898885789638,2.5931325402874568,5.36194105743892,-0.009011627069141347,-0.001592321022711954,-0.005043371040720402,-0.14782834561613717,0.9306640781006471,-0.08628761456714393,21.6599758696708,5.1795538402396435,4.066194620345759,1022.0724195661127
562,7.619772028592497,2.5709879623988434,5.669642826851894,0.03138958846325106,0.009522818635849029,0.023423754552240335,-0.3239468905907989,0.8449413139546064,0.19637993677613844,21.999612279923763,5.080712532498329,3.9870899553706116,1022.0671508267299
563,7.231242679389038,2.390012387758702,6.250386585033064,0.14176376025438187,0.04024375416341046,0.10484749712454469,-0.6745654018963032,0.6173447294409893,0.7562233937062798,22.848368165713325,3.926282878058239,3.52608930721822,1022.06330547002
564,6.893500845273188,2.1704773480440394,6.823246379995048,0.2524638434354011,0.06854633069423956,0.1837675606848329,-0.990661080860467,0.37268819766152955,1.2616172208136394,23.907972148273736,0.36043777507904906,3.518183689435864,1022.0625602522089
565,6.8519243657552495,2.299254834156107,6.88814817574507,0.28002630783542515,0.06952667506462845,0.19882835539728225,-1.0135210163959905,0.428823016055944,1.2654077648091042,24.203572411252896,-4.3857489260565075,5.0504825233160195,1022.0624698168202
566,7.184313610934633,2.325558962872892,6.3782299226266845,0.19122498236424204,0.04787240761927151,0.13627425114050928,-0.6359570051065143,0.3761036746211917,0.7521427892998686,22.818701908346643,-7.918363673525339,6.551083828135058,1022.0628572703152
567,7.402357541194338,2.3363479119128603,6.092698402428075,0.12143975317448782,0.03127548711834664,0.08766065575362747,-0.408543442667093,0.34159995834021795,0.43768423286612707,23.18691071142516,-10.456120497320603,6.8794809730643625,1022.0651186749375
568,7.484435420070942,2.3146773112441563,5.991837503212669,0.08986830080627736,0.021649054243549747,0.06440423209848783,-0.2937087510873737,0.30508499036721315,0.3334159079023511,23.54346442303287,-12.110311537184247,6.955758117523995,1022.0677584591014
569,7.484811672081415,2.27293213135839,5.997137053229173,0.08045600419222547,0.019064534436113105,0.05688548548159391,-0.29451423685268086,0.2076997315240266,0.3477545439528663,23.719867917240215,-13.486536908699081,7.119038296132908,1022.070633337479
570,7.447518132523234,2.189689717821578,6.05061992037054,0.0784850407772564,0.019900994391344805,0.05631925837147838,-0.2982790868769597,0.10218208449569402,0.4151320346919972,23.65237271952978,-14.593624117577788,7.4571853859786215,1022.0738237911692
571,7.461804184244311,2.1664311133134273,6.063058723889911,0.07745868829070843,0.017867078156180962,0.05368730607889962,-0.29922664424672674,0.027568341504649374,0.4530352537199287,23.378162387627597,-15.638317747077961,8.071842784874399,1022.0772243038249
572,7.44991715254982,2.2098035890081604,6.045391338139652,0.073929754549584,0.018338744788861966,0.05194994443045054,-0.31739910352532036,0.020093381992410297,0.4748112273550654,22.9522404188991,-16.56026341873989,8.82868673780349,1022.0826327491064
573,7.420572122007016,2.1273275868455856,6.092741005436638,0.07450983016824216,0.018763963093625612,0.05264290539765401,-0.3185631799592919,-0.06335426913897788,0.5340774787435487,22.42889763329407,-17.201359005724935,9.564500587968183,1022.091279436604
574,7.452398371725817,2.0208317298955754,6.154429782712532,0.07898506639983133,0.02134309884532952,0.04908963568480777,-0.2828630559588562,-0.22133024259685305,0.6190547398409596,21.86916885397197,-17.892000127576907,10.519342315238028,1022.1018156810719
575,7.484181611542141,1.8906119208808012,6.142239213497343,0.07769632768211246,0.015641599940463425,0.05207443959803332,-0.29303849709844854,-0.41212955492017356,0.6295139110539137,21.279293590355127,-18.473248578317257,11.639423432828371,1022.113648339156
576,7.536382313527081,1.80369930027284,6.1066471866578675,0.07458044166285745,0.019013973200473787,0.04829170544105833,-0.24217524112282943,-0.5319717377572004,0.6277655647891864,20.540004837447732,-18.871357446254816,12.91758057768597,1022.1271690256227
577,7.566489049672188,1.7352934342703417,6.0755218304966645,0.06901596178376276,0.02116557950215027,0.0458140256843307,-0.20532723489878335,-0.6219671815338605,0.6047457855682837,19.893098325527124,-18.903232297665284,13.770976671391832,1022.1395516286717
578,7.615359276351118,1.6852513725927236,6.005989370123984,0.06032664452651891,0.018489708010558242,0.04143612391240256,-0.13497785396739914,-0.729919279217069,0.5180040449319755,19.577580762652314,-19.080204426330216,14.524533731991808,1022.1504028233944
