Time (s),Accelerometer_X (m/s^2)_kalman,Accelerometer_Y (m/s^2)_kalman,Accelerometer_Z (m/s^2)_kalman,Gyroscope_X (rad/s)_kalman,Gyroscope_Y (rad/s)_kalman,Gyroscope_Z (rad/s)_kalman,Linear Accelerometer_X (m/s^2)_kalman,Linear Accelerometer_Y (m/s^2)_kalman,Linear Accelerometer_Z (m/s^2)_kalman,Magnetometer_X (µT)_kalman,Magnetometer_Y (µT)_kalman,Magnetometer_Z (µT)_kalman,Barometer_X (hPa)_kalman
11,4.78155470578,-8.355720190340001,-0.7418483184833999,0.1631017336086274,0.0882115305133333,-0.0761807611423529,0.3433481993307843,0.3353162861734706,-0.141539869712549,-0.7938863716771765,47.82519015176471,4.879006142764706,1026.977463
12,7.0109816875526425,-6.698280769043257,0.4610667307112164,0.15356612642563888,-0.18981122549641255,-0.42503655677812574,0.08734266275194053,0.0366428267476151,-0.179387817316515,-15.521741867445849,44.79730910906513,-0.4920714879518231,1026.973383751731
13,7.629896663592675,-5.4554968894426334,-0.19395486941509488,0.04797512736102505,-0.11155632570475732,-0.46247598843483206,0.1270316602589206,0.3072847766075749,0.44067277606896127,-20.649678791304297,41.8488271417148,3.5519923061844354,1026.9715318358337
14,8.08800368041959,-5.007580870647152,0.37024070254127694,0.13953500307858385,0.003997755114693677,-0.04237451230140182,0.2666615755171871,0.173345135258228,0.28255143207605055,-23.171009863943258,39.25062956823601,-2.155402093014864,1026.9684244177165
15,8.161213574997666,-4.7391661927961035,0.4434889754714573,0.06701707714273634,-0.04720990587327242,-0.23105063245627053,0.10345379073515112,0.07289733884651951,0.18518216494434286,-25.097955986527033,37.58704436374808,-5.072850036055576,1026.9646325821236
16,8.180390666215493,-4.795149585277504,0.7029000803389259,0.08909685791990504,-0.0346270758137379,-0.008697865742386263,0.11384004007779658,0.09236897992633024,0.13137013026689012,-25.155574229592325,37.27321946088287,-8.129195200967782,1026.956729704026
17,8.311423449718452,-4.371890293886103,0.6713735661167595,0.0076507144289698625,0.013576248972223842,-0.0006018428280804237,-0.03446351860446703,0.04747825205173489,-0.00666825648227537,-27.393381645397422,35.453355498763464,-9.524257563682129,1026.9391971896632
18,8.259543920301962,-4.496028282904188,0.8536040928782631,0.04126523219693644,-0.05432003623332256,-0.13475940210764037,-0.059882678695688724,-0.032697898519763666,0.08839599383929243,-27.309906760987705,35.26141042104794,-10.899701125653923,1026.9037261194585
19,8.316809866649363,-4.7241441427004265,1.058423979535448,0.006606043955307728,-0.045161662698920454,-0.02989679128319099,0.05500366750706007,-0.10461888255486722,0.05731540124810629,-26.709942679117223,35.27174438407108,-12.610021236269922,1026.857464539371
20,8.2962576597788,-4.624602248670515,1.1002920317869886,-0.02473641449386523,0.009592778338944917,0.06281486450084392,-0.04078272293419,-0.18638459627650006,-0.03154900092683688,-27.185440089939902,34.251372320567896,-13.857049562346878,1026.8056165100327
21,8.324154393902154,-4.491389167770511,1.0031042978836209,-0.047320390343957755,0.022739265246352565,0.0032282740801862844,-0.1537378879763419,-0.29590447841336204,-0.14935260286844254,-28.208484877543242,33.56311628377925,-14.358282558999072,1026.7552811509447
22,8.297724474083074,-4.59685529931286,1.0665295627219684,-0.0325039191619608,-0.04350423173922185,-0.10149376608731306,-0.15435773950007273,-0.3038767262209041,-0.005271350713555667,-27.805936320155602,34.014427025526906,-13.996021294396634,1026.718677329491
23,8.54278244817682,-4.257576089116642,0.808849946036247,-0.03697910307733525,-0.029542569097140287,-0.06051437763288717,-0.14128713899747497,-0.32864829212328234,-0.04748482123421922,-29.8440090345522,32.836412385345874,-13.131074191670173,1026.6994016975557
24,8.69397507967857,-3.9385182960308134,0.5358543396571662,-0.024302680620312482,-0.008873405236871749,-0.03630808818271895,-0.19386495274518625,-0.3454444221655939,-0.13113250631294462,-31.592534148977606,31.73223331420555,-12.25725972762751,1026.692731580291
25,8.828693856936791,-3.8128444277625757,0.3803888945191487,-0.07239763394169503,0.04081453436729918,-0.023146115420528912,-0.17602391957297453,-0.4260661808431573,-0.39285284014206456,-32.46056189726814,31.377888124168575,-12.41527909899357,1026.708773218478
26,8.962901979415294,-3.739229643427358,0.33145758739136355,-0.14879038426847263,0.08390236730986811,-0.04010046161103655,-0.08689830895235054,-0.44313875156319266,-0.7028071407942516,-33.12443758054765,32.35234008754299,-12.278374796741774,1026.7416083701648
27,8.990656778794502,-3.6479322001811423,0.34785362512795737,-0.23868081489275605,0.08420088302940612,-0.03722015882594524,-0.059723936890306695,-0.33849859508609326,-0.8614187726010074,-34.27195714060267,31.93429417996532,-9.216370570035401,1026.7849661478233
28,9.023671289731205,-3.588682150319208,0.5323165405569331,-0.2866862696633127,0.17020614796953049,0.02736536330362297,0.04819436229305857,-0.25454523400371504,-0.9073370416976164,-34.462950683784946,31.33280969253754,-5.078330242239427,1026.8267079826826
29,8.747206167261481,-4.139015557526985,0.87107034167293,-0.2164923321949659,0.04225362085155385,-0.09082919841699344,0.0892959406705964,-0.21208598503326184,-0.6360953126307842,-33.12472290616082,31.827918460863934,-1.5903353368454174,1026.8632111686316
30,8.796039264456823,-3.6136053518917035,0.7800444144393488,-0.13825646167119524,0.07971462711382343,-0.010696540215583666,-0.09057255409245712,-0.22741573631216802,-0.47088454552886905,-34.48161546487183,28.7860533396541,2.5644154661764653,1026.8908825570043
31,8.461695697518923,-4.254112662841942,1.064586885893222,-0.07736153820176957,0.025709115662439073,0.02673614242287426,-0.027791264262764806,-0.13422433906611428,-0.34703237641980517,-32.01751415873012,31.10565051812207,3.4906726136801662,1026.9110780950043
32,8.579621651434731,-3.839803922142823,0.8472105835965038,-0.14051438559737145,0.020046631226493496,-0.06620673504220848,-0.12563214237664383,-0.09215194545241945,-0.36457897009384144,-33.17689889462536,29.340805778861018,6.135169167498166,1026.9231176320018
33,8.39743068221508,-4.298450717640085,1.1055831197268333,-0.07329176626302489,0.0003733970218476289,0.06438954085101997,-0.022003052958160685,-0.002052877783000437,-0.20253287729906339,-31.31762525374583,31.014978038755935,6.751367776040768,1026.928462513994
34,8.48321871890551,-4.0503024367616005,0.8980585401416412,-0.09064454997045152,-0.008046033423203819,-0.05754072942009679,-0.1287256793578781,-0.0716478527811415,-0.2282059710635807,-32.02197388211118,29.551723739651127,7.542684087838238,1026.9321365040398
35,8.33380749274767,-4.442324571143211,1.021031932284233,-0.05991758218837011,-0.024246078944985316,0.04750690716223584,0.023195323110295596,0.09420504740634075,-0.0994279428874647,-30.382135812730287,31.04746996564934,7.765527600486954,1026.9348179401488
36,8.416426015876404,-4.220566088124439,0.9030641899487379,-0.05783975110941765,0.011419669807314868,0.07332968240091234,-0.04076802349535155,0.12676783280615783,-0.07864552015696104,-31.31577452879322,29.960398674321688,8.601236493682816,1026.9393103854998
37,8.441255486888533,-4.240821401094719,0.9419932275211264,-0.043216790639327395,-0.018480923744839024,-0.0792257946197866,-0.003153844679297302,0.04205464240650629,-0.00734525570992596,-31.503230393588776,29.110936793421168,9.68656204543607,1026.94559816833
38,8.53334876319659,-4.523208721514892,0.9957090443183981,-0.053862592185748584,-0.024911770467932682,-0.09725719448653025,0.13653789707186692,-0.07587464255523081,0.014790058379501946,-31.46349546796177,30.168625777013666,10.622778287913981,1026.9524546881764
39,8.446553297314088,-4.482640113732776,1.0168793758226518,-0.04483711330624213,0.004575658100682726,0.04629833831286978,0.046496535752977866,-0.08414954091545429,0.026456179806164257,-32.10658518608254,30.11389530377691,10.758614441029383,1026.9574588761884
40,8.474463991024896,-4.361458293675741,0.9282730134655972,-0.025983505183107315,0.024993718130038017,0.08580677957236837,-0.019058588587330588,-0.12374941570442533,0.014213720195086361,-32.915916141295604,29.487702556370905,11.306207473704033,1026.960987420017
41,8.438187820677001,-4.264569145688228,0.8874747444121148,-0.028389221586171205,0.03287113281561524,0.01635085599959947,-0.14052856113734147,-0.18322757030466164,-0.0029746478489817065,-33.27486288014651,28.936943214328238,11.529656962699429,1026.9634389742055
42,8.356451242511875,-4.311191973038729,0.942331985009762,-0.03466015051859695,0.009179557137317256,-0.08862027192840198,-0.15591512405954183,-0.16703998808481219,0.07575579309711905,-33.30124905908478,29.135311336070252,11.902780764284127,1026.9610029825926
43,8.48819193695254,-4.509701095661297,1.0177902866993793,-0.037981451324658466,-0.015399710641832987,-0.09387945639254254,0.018667200371702636,-0.21456380442170478,0.059130140444994414,-33.151473768015435,30.05159434711672,11.3663724468952,1026.9550822437313
44,8.496081591626833,-4.609571953391318,1.0260254093987868,-0.04030353608744287,-0.02599351582378214,-0.023899187393662064,0.06714813447382567,-0.22200919886049056,0.0928670019006082,-33.05175446319376,30.45480629848206,11.432097553755703,1026.944742489166
45,8.427966874101118,-4.626796267380672,1.0307464454272826,-0.026054061370461283,0.0067611574760651355,0.050874776944576,0.006304374735078902,-0.25055191540703453,0.10886223330635514,-32.97938305163345,30.484954090271174,11.395315037663961,1026.9322495232943
46,8.37875356919548,-4.59554832206902,1.014062281708546,-0.02508021912146227,0.022913880005294235,0.07730872135180299,-0.06739269710853439,-0.3134512140132174,0.09079801926164582,-32.98164308043506,30.15297750042415,11.431733412514957,1026.9214001786038
47,8.402399263350608,-4.525764585806583,0.9778879842275848,-0.031304207993364766,0.01621200001729132,0.08247517047556582,-0.11080866258982394,-0.3484375054090362,0.08635093375433514,-33.568490913869525,29.69624029133035,11.715590342615858,1026.9134818517803
48,8.39537976460875,-4.454520727641903,0.9523218270629257,-0.026368582495954168,0.012644908416275549,0.0574019080907623,-0.16984358060745597,-0.36865803071786213,0.11348078257906233,-33.98254244395276,29.36751262765536,11.913983866782068,1026.9082384299056
49,8.33826619693421,-4.44786523459542,0.8973560886408468,-0.04932536914327933,0.002308630355332063,-0.01110327387602568,-0.22533581452027085,-0.37076837233637,0.02949834888256256,-34.096701492304454,29.323278082449974,11.77879256700642,1026.9082658696975
50,8.356863580994228,-4.481261014925064,0.9055910197341482,-0.039705303007112926,-0.012825543577156496,-0.06603048998730361,-0.18789596871446368,-0.35898423465816676,0.05997882961686059,-33.978743246049774,29.45699538025577,11.903341585710113,1026.9134183241727
51,8.35966851593063,-4.554902708279329,0.9734713581517431,-0.04182316173410522,-0.028516651041563423,-0.09040221205697206,-0.14053849230842544,-0.36258068660714277,0.09937725617809268,-33.64747459659883,29.620826197189157,11.751797662935964,1026.9180649234397
52,8.453259017930492,-4.681874767148462,1.029039671607667,-0.04070897378989896,-0.033760228999467755,-0.07880510909624858,-0.01005748500164047,-0.40092058854550217,0.1586392497743861,-33.40953276848306,30.091308662316536,11.751244232797474,1026.9214562150507
53,8.416322198901899,-4.789182798759318,1.0183636436082844,-0.047548628303348994,-0.036219040252474036,-0.02944947968765805,0.017954823512541362,-0.3878349825014602,0.16563858330257664,-32.917595852906345,30.80028837178405,11.741361814795411,1026.9236428013323
54,8.362841435895994,-4.854565131995857,1.0472798347352532,-0.03488640755572079,-0.0005155524449500168,0.0035886495081943817,0.01070071477150065,-0.38328411752356556,0.1285401412654995,-32.892482527477284,31.178464701285165,11.496133533043267,1026.924579216434
55,8.349124651666067,-4.851146433444042,1.0528219223608077,-0.04016975805207318,0.001724251649339465,0.044286263713456134,-0.005505003940152879,-0.3952888718403565,0.08554931332785393,-32.71806409839995,30.76770000445611,11.323514737677428,1026.9225832438697
56,8.29437147443813,-4.786456044234161,1.0784431337659506,-0.013403474951916995,0.007937022789122434,0.06634693005526478,-0.07035556230059849,-0.36372511251239936,0.13225278869119939,-32.767421696957236,30.585053644375954,11.39705007129427,1026.92033291182
57,8.24531620993234,-4.8556370937812625,1.1130579214881566,-0.025561268710893554,0.01599735569804143,0.08201749395537437,-0.10821010175961934,-0.4325323641492506,0.1038918428532926,-32.848812816917,30.748546060986882,10.998662972420853,1026.9178969370798
58,8.241700277127794,-4.839202300578591,1.1045587916537627,-0.03743475951271788,0.024443061591678982,0.07844839829687442,-0.12098092126470668,-0.41435248640919853,0.07294735188481205,-32.999380233215405,30.682197785013027,10.977736804252766,1026.9129241886862
59,8.242912383991953,-4.822241375465068,1.0950135622142143,-0.03698413874406576,0.008161333784539322,0.06666234501438745,-0.13340586440118227,-0.42577992598816855,0.11928549429938044,-33.097065305956875,30.448985543041328,11.324824495990793,1026.9067802451411
60,8.210290614998424,-4.828419352951736,1.081753057294513,-0.029964043562278293,0.012321564452774623,0.058344118749129634,-0.18168104991685835,-0.44310511634052596,0.12123144709185121,-33.06739688110414,30.368198189688723,11.315690737089424,1026.9008329600665
61,8.174826298454622,-4.856369726853958,1.0868469268986385,-0.03073902263636083,0.008330112025900671,0.027935564790411555,-0.23662399979707677,-0.483657734628735,0.13504016681680234,-33.18487253055958,30.287720582847417,11.439287149673538,1026.8950081327705
62,8.156178388761143,-4.828311943873951,1.1000870257768272,-0.03189837422704893,-0.0038081417630539804,-0.007637224050763367,-0.25297934851840825,-0.4634355628741543,0.18610364129355822,-33.13834792439277,30.43043962585897,11.563751838550214,1026.8907569187518
63,8.154087956709402,-4.836964503269048,1.1126379790196168,-0.027163980524793237,-0.01595496889120117,-0.04464515707833093,-0.24445376415389355,-0.4482967050729007,0.17176880750988022,-33.018654865413005,30.71677558644757,11.345474471866334,1026.8889733693907
64,8.156801040037065,-4.831315660832142,1.169827635120915,-0.024270228620554044,-0.024337246409093627,-0.06361239734109439,-0.21361481095387663,-0.4104810879246832,0.20724239106815573,-32.70094180915984,31.045098923276772,11.220271574060861,1026.88810444722
65,8.187098408841408,-4.891527830703047,1.2178773046179545,-0.028047616684795034,-0.031517464728310386,-0.07934659526256592,-0.14698418687030648,-0.40940852289416035,0.16402934936082822,-32.4049215597037,31.513322072730286,10.755665103283269,1026.8881094593687
66,8.204358066487098,-4.965937054900255,1.208973225491541,-0.056855762646890254,-0.008149101452979046,-0.07643274962628464,-0.052056938554680895,-0.41664303940610414,-0.010783161494144156,-32.028756244399865,31.992497450904075,9.880258998828396,1026.8880717835539
67,8.248382724365705,-4.9778241243181265,1.292057382053286,-0.0862920883136099,-0.012890093083547573,-0.07642003933292918,0.004185595143658891,-0.3877528934294478,-0.034864323261021096,-32.61531230229916,31.453942814041717,10.022372011348374,1026.8880442860946
68,8.257614668074417,-5.025838407064651,1.2928650286367642,-0.06016240296024096,-0.02475312673466443,-0.04156699768810446,0.036555918538337145,-0.3860713696308937,-0.019812415253830498,-32.71946636394558,31.30930381929553,10.458503489204386,1026.8880242172447
69,8.243628684620772,-5.0510491662229295,1.2830071798061509,-0.05111258798955037,-0.044816163442017574,-0.019460651685114874,0.03827103523936507,-0.38662234976892623,0.06592957296883019,-32.60982007685684,31.06971541795241,11.126038215265513,1026.8865256020474
70,8.215188938895992,-5.08374251676679,1.2718423620430812,-0.044032438869000295,-0.016629488327430247,-0.004457374235910883,-0.015276907694019258,-0.40987368834960797,0.160229229314167,-32.566772434049504,31.0188353353431,11.59434061961617,1026.8841540081728
71,8.167468225469941,-5.085962848369941,1.2664541783468646,-0.039446638405225685,-0.0003690425203768284,0.026147681886177027,-0.05442178107787217,-0.4089504912625757,0.15280254412912958,-32.56599927078553,31.076052803607645,11.548022709437312,1026.8822788516982
72,8.145669145524646,-5.025601732754063,1.2695054878597805,-0.015281885917202344,-0.01033336877381629,0.06861069150180044,-0.10916168430315981,-0.4013280015088553,0.1838096338628743,-32.782764310485234,30.94763736078577,11.688225661304198,1026.8810545438107
73,8.130288137274976,-4.992433246298772,1.2974713285521733,-0.011297511165489008,-0.007584776527596574,0.08405566236807954,-0.12686992245871204,-0.3831799903647745,0.20206809541651807,-33.23908855701567,31.108003260789257,11.324904193646466,1026.8803669844158
74,8.144852361687013,-4.999140529158263,1.3029587027698823,-0.023890669724209956,0.0338849031406582,0.08557478249854766,-0.10633469515617239,-0.4123890934191297,0.1153406034492512,-33.021974379260264,30.916500131663042,10.768507162665221,1026.880071167574
75,8.154500737553084,-4.9277162215986365,1.2939668220861065,-0.03035681665611705,0.019570134037256288,0.0753467372609741,-0.12790845150639876,-0.4002595891981767,0.10996907054251964,-33.16907025676601,30.574486398032775,10.737528098228912,1026.882926403306
76,8.171197032296977,-4.894255241507997,1.2609770466061663,-0.03517683335817791,0.030121496909157837,0.06254276886165164,-0.14713035528449178,-0.4254509764315101,0.0743096544911983,-33.31736593200497,30.273798731005662,10.677326893288393,1026.8850102793688
77,8.143663154158977,-4.853874433588017,1.253399230880708,-0.030022813161647077,0.016247198962277387,0.029309947525748066,-0.207013381037028,-0.4179960384414706,0.11627107257418384,-33.37617242245785,29.90745099523515,10.966081324302033,1026.8852738763583
78,8.098107973618754,-4.8508028994347665,1.2830060325435406,-0.02473030418623474,0.009954097295402253,-0.005571926488834755,-0.25190521427837725,-0.4282940346556782,0.13549655213423958,-33.178254746786564,29.824077778197573,10.684056255378707,1026.883240443954
79,8.088829821109817,-4.872737412989111,1.2579773021729783,-0.03692365869484862,-0.00872775702099696,-0.0651569189956327,-0.21486349618511905,-0.3939289229327961,0.08342084527081331,-32.89726547927503,30.074617639223604,10.49579113186908,1026.8791593442807
80,8.120775142391222,-4.912747848214441,1.2805093756247086,-0.040868947985515845,-0.029547109799635794,-0.1010143182009155,-0.1531757058458609,-0.38349283576682097,0.14871681531045672,-32.70885530516268,30.26596331541666,10.682275385384806,1026.871131019123
81,8.157806958757527,-5.016909887602087,1.3539301722201937,-0.03592467567255861,-0.026394222177280838,-0.08944949749286141,-0.08211891311332134,-0.3905522681324088,0.2086133585476399,-32.47898981927381,30.604336094021697,10.699360414861832,1026.862468455023
82,8.185560071946881,-5.135290509566299,1.3470804360872946,-0.034141278056319835,-0.005941408819866871,-0.049332345613990664,0.023868056590529957,-0.40898688065682415,0.1492270271489204,-31.96348597374183,31.291745628853615,10.331604575909743,1026.8533635274432
83,8.133276043631293,-5.122577082424728,1.3842623301137094,-0.022985313444458734,0.0025942869855240663,0.022646347824653246,-0.02007995674245356,-0.36763054866575107,0.12356635510014091,-31.72969454336341,31.248403016559315,10.169538497286498,1026.8437504164642
84,8.114546354595213,-5.0568433335308685,1.3159438653287387,-0.04591968340640368,0.01911334169008739,0.07289099092712792,-0.04106546496136815,-0.3336937821135497,0.043663766906840026,-31.997657048712515,31.101122113396094,10.154845847301912,1026.8353943723207
85,8.119645661684608,-4.994491352470738,1.2896342456622247,-0.027307131796048916,0.02699728585915951,0.09258569135541406,-0.10896077468699299,-0.3482206072352102,0.11549821112512722,-32.36493299932088,30.60262127995987,10.621516794382247,1026.8292957654091
86,8.136318112675864,-4.902419485971596,1.2568646181831302,-0.023009675377362333,0.03450693516823289,0.07597417091307403,-0.15349923279840533,-0.375757539650355,0.11333042855701578,-32.77879288057707,30.32816522724033,10.546293979797193,1026.8265966980725
87,8.087470715929065,-4.835907257308264,1.2315988528383193,-0.025180089856147187,0.012694962831145594,-0.004035813028347143,-0.240689260305038,-0.3718276577524391,0.11124458944969502,-32.91278390510023,30.116801850388065,10.633441887144665,1026.8282749900281
88,8.10042703793039,-4.85871455488882,1.238355083306196,-0.044998965260435106,-0.01723855377670412,-0.08501632447509207,-0.19606317294792,-0.32517980395353674,0.09350522479156338,-32.3920817734368,30.451875870932135,10.365217447180667,1026.8344467113823
89,8.122355413695635,-5.051913948228507,1.2633583872307395,-0.04962894884490299,-0.020340366867666455,-0.09892737305375378,-0.04608495570736176,-0.3349434505089335,0.04503853518947938,-32.06167376711878,31.2105914037462,10.28453866699649,1026.840991593743
90,8.110927241616986,-5.114584125615557,1.3198274910850942,-0.0642681999623927,0.01452969835647865,-0.017949258982039862,0.04973926413805836,-0.26951836668337514,-0.04832963623916178,-32.26888851199714,31.53762134646497,9.995852669991788,1026.8472523035498
91,8.12338687068273,-5.109766463832337,1.3831293199085313,-0.06902798356827011,0.028975125324491802,0.030525755207996316,0.08744779936756986,-0.2641768163562985,-0.11798347588985972,-32.64964901189049,30.05661118810966,9.466492406927276,1026.8533056117833
92,8.140223777966318,-4.985508975021685,1.3663325573171496,-0.10355467782963443,0.06496534825985736,0.054562707637879335,0.04684260359317351,-0.24267253926203733,-0.16020604900435229,-29.89612321953533,28.964383112182727,8.00495831172607,1026.8585070342097
93,8.189880512170394,-4.922849431148091,1.3827516321121636,-0.06885980716493037,0.06414678202038329,0.07154110923031667,0.025368712450226337,-0.2730127517073999,-0.0659719425111756,-31.2155557895764,26.339349501575064,13.080896429600822,1026.862303260057
94,8.132137867542156,-4.862009917007995,1.3379661226561048,-0.06314307555005819,0.032468678658034475,0.05650305128211637,-0.0951342681245122,-0.29545084585038717,0.014937053179013698,-32.772976209060694,25.602007264379715,13.538907267819793,1026.8638166049
95,8.11606761566623,-4.852447491374498,1.308972617115887,-0.028953401305076662,0.027446879135555994,0.011108410752570477,-0.15265892297074912,-0.3301283733851308,0.0628941073969077,-33.78274989899553,25.330257931876677,13.566903690556078,1026.8643027226638
96,8.026952539581249,-4.92733639470606,1.3189601998841864,-0.04111771702104718,0.007747443197714244,-0.052300599467622916,-0.21075838701119753,-0.3305953305929349,0.08087827969599,-34.14099074906785,25.81579526721837,13.446553582010404,1026.8605765329576
97,8.031030530427985,-5.002010100419741,1.3702852703930377,-0.045961027104442644,-0.010694650653753027,-0.09611277073632023,-0.15264938976408962,-0.32003207586566423,0.16182590630819388,-34.426076121037,26.071176547091873,13.532089832465111,1026.848581723325
98,8.048406291732032,-5.1422544979940845,1.366901187884055,-0.04426691466824039,-0.019887362020311564,-0.09558009034450664,-0.06642800754588137,-0.35461715994841586,0.20142077825259586,-34.34035451678981,26.633939718828262,13.41532348408488,1026.8300371950627
99,8.07745385758654,-5.25533397444795,1.3624389297607784,-0.046816701306379195,-0.008824210127796696,-0.05670096952123313,-0.00838584272708072,-0.36295486175911124,0.19430337404186157,-34.39293590861031,26.88728741051899,13.15409765553812,1026.8068769204779
100,8.058335214544268,-5.236342988082354,1.358529487486878,-0.04417399472543512,-0.011697564999310097,0.021944982529297677,-0.011786152872702113,-0.33019776330064815,0.19720714766327135,-34.577716360931035,26.87824512630343,12.964214821524829,1026.7899735379406
101,8.038204760407334,-5.216140853538404,1.3419592295413185,-0.036814391229746196,0.034402018923404776,0.07593865834055957,-0.05606714499181746,-0.3578417030941629,0.17919857041135515,-34.94991194822182,26.578884359101803,12.857300570532315,1026.77895588198
102,8.060553616209152,-5.070051083858158,1.2992310662429098,-0.037997241255546814,0.03438814472641821,0.0917879004121532,-0.12082408971690096,-0.34689372294346554,0.2217393231371032,-35.38228931344267,25.946566169996256,13.109542026153983,1026.78099370217
103,8.053049254937273,-5.0210649434712895,1.2223456860888149,-0.041710723284490776,0.03033258465778864,0.06766278092716137,-0.1778731532821305,-0.34207951446476387,0.18494285347965647,-35.646985132703186,25.881000305257935,13.23031714347149,1026.7933431633878
104,8.030770729441688,-4.983794033730082,1.1984470105437017,-0.049020845470767176,0.014219138559001716,-0.0216764387982758,-0.2116398329985194,-0.3251556562416343,0.19926535935877096,-35.84841888385562,25.65007313233929,13.438814178943673,1026.812352661096
105,8.0084318227721,-4.959717830540229,1.2499682921184736,-0.03902452445549792,-0.016760130732956926,-0.0653787582443748,-0.20306590666336508,-0.2776681162647471,0.2664951975390464,-35.76360539492624,25.75031943103089,13.48321888075431,1026.8339765961637
106,8.059584769791549,-5.08556407452581,1.3001676331363035,-0.03772785905983457,-0.025023287363387717,-0.09786223615864527,-0.09762395703191927,-0.30685330931886073,0.27838333170646995,-35.56158199271313,26.289371591274257,13.279804405042253,1026.8500266858098
107,8.132409499728352,-5.152947548155548,1.3205195168228379,-0.03792642114847522,-0.0135898534682777,-0.07303873133149189,0.012530704950711749,-0.32767978124884517,0.2870203323900074,-35.42584474849058,26.72171436716172,13.138667997880345,1026.862008738999
108,8.128249658062993,-5.179902750603711,1.363629858992402,-0.024956559030882737,-0.010038472419421936,-0.0193309627717072,0.018268371666180158,-0.31804315333994587,0.2836512096341361,-35.367796404747054,26.943968731242023,12.984077297771334,1026.871949207326
109,8.125157373129829,-5.117514129153298,1.341453810898107,-0.043302374943124,-0.001763013237976641,0.03267585654834297,-0.0063084677720639006,-0.28999052793720004,0.20706394378841209,-35.68338761348193,26.752116156284217,12.774909915309625,1026.8794308574472
110,8.105698846756427,-5.045041698890174,1.3412409979440614,-0.03603307631227317,0.00044436028775399596,0.05678448275357434,-0.057596107376280334,-0.29268943244113,0.22797036602665754,-36.008198561209134,26.32985033352906,12.979508864578095,1026.886395793257
111,8.11135449458082,-5.002211879428668,1.3472073846879902,-0.022239918178004782,0.041778211090317624,0.07463440809767133,-0.06831440425686255,-0.2987977609063933,0.24413186265140877,-36.14121908027626,26.094355373787216,13.118826328163099,1026.8923241570233
112,8.122270317797454,-4.978968163952939,1.345768987783356,-0.028825058626683175,0.04125212825111003,0.06911470492814671,-0.08777115554275254,-0.3180045142035229,0.20221949810586753,-36.48437355819279,25.726385086296936,13.011789997814956,1026.8966509364918
113,8.134740551645253,-4.938483269520071,1.3255933900234425,-0.013918141938833877,0.032869055363623965,0.06850802853277134,-0.10881832238956445,-0.33026510927371694,0.24078333561779477,-36.64478655390491,25.342509446361984,13.300127058264241,1026.8994584170027
114,8.088974589748064,-4.997653057516463,1.2413288701524368,-0.015146097581178276,0.025960643873731846,0.05440753135103814,-0.15607435135273423,-0.39424077352623005,0.23680548306928734,-36.47576854220074,25.376771818239185,13.66193887712416,1026.9012189123796
115,8.061143969765018,-5.0006966740117225,1.224135429873955,-0.018002264370211612,0.02899551338249039,0.014504054709868833,-0.20662231261901384,-0.3731341357408774,0.22908956370392725,-36.42180149493962,25.358726772094627,13.876375849456014,1026.9011640943397
116,8.019570927317096,-4.997577809953397,1.2628806201751184,-0.03197072542025117,0.018467586107383423,-0.023041834188800285,-0.20786999177544846,-0.37572272825463304,0.1723621727362542,-36.37588575374117,25.523629584373015,13.385285065365464,1026.89811481569
117,8.04401038416843,-4.968378299892649,1.2895132465110883,-0.03701017215131866,-0.006762331989457249,-0.05440816492833702,-0.20085074587629867,-0.36226227936941735,0.22406363870115026,-36.43499953750085,25.389392605865865,13.479274394561209,1026.8947352112718
118,8.047220731143694,-4.983315756661448,1.313296752503969,-0.04075677492498925,-0.007128093185772774,-0.06540404169995587,-0.17672015686405815,-0.35326977291681644,0.2353505291010199,-36.30867745923735,25.50917603441977,13.32114460415392,1026.892165428308
119,8.071105009364848,-5.007184235937217,1.3280846723009254,-0.03672264592958893,-0.017742959002062277,-0.08355857991155471,-0.13523422590820847,-0.34179778656054216,0.2499614877037258,-36.243777202931334,25.57197601505628,13.252856484439324,1026.8902074905307
120,8.106279108926643,-5.040170137569394,1.3560910632225653,-0.029826939587575662,-0.013763765741037125,-0.0816651515419168,-0.07831824709527843,-0.3418157456972811,0.24518353627119963,-36.200285487442535,25.777753027494438,12.985913179891469,1026.8873977334074
121,8.144915606201732,-5.0813621254546275,1.3889323699709142,-0.037748804332716546,-0.01477284792901975,-0.07209800007187613,-0.04233992373257908,-0.3606269244044751,0.2643395696189439,-36.29782354432221,25.688375071721456,12.972341580164295,1026.883883613425
122,8.182858476593697,-5.176797648975673,1.4139560516178415,-0.02715313795401563,-0.009037179706982208,-0.04519827855929917,0.022136499843459514,-0.4069450112516513,0.2606836778838522,-36.235673337046485,25.92247678534582,12.843801732871583,1026.87969035314
123,8.15193472255048,-5.1922991011415665,1.3934225639280546,-0.02438723582043051,-0.00786333802538184,0.009382390358005824,0.025983975918473734,-0.38872934194540915,0.24560841345496226,-35.90226139434095,26.357359197912864,12.792259229341278,1026.8765372645883
124,8.112406683090963,-5.18379671888451,1.363064698864528,-0.031897236378885065,0.006073310478202771,0.038873738437521003,0.006090747596622717,-0.3550044127320757,0.19919166576063102,-35.82546611802337,26.510745578421165,12.770024521045295,1026.8741433389148
125,8.094137604364525,-5.115510533582046,1.3449956651760828,-0.02490407399993371,0.01670848439766904,0.06729576695205551,-0.050152620147429945,-0.33302506009727845,0.21962415810243066,-35.99260207574469,26.26040239646141,12.975803081746266,1026.8705204525536
126,8.100757133036375,-5.0703930943869535,1.360969042356596,-0.011905138307697584,0.015559202713857388,0.0710391243561008,-0.06897645753517481,-0.36358453747050995,0.23180320820372027,-36.296542310560895,25.677005667435935,11.279399232062403,1026.8678763114478
127,8.086462165663322,-4.999506431683062,1.2869191712491772,-0.028510826833027823,0.025328958648922643,0.08213138523132743,-0.12387858629353163,-0.3439471550066771,0.18849771610658747,-34.71698583098778,23.86456378117027,13.409665373972228,1026.8673894058145
128,8.119682259271913,-4.968770944389166,1.2955760334604713,-0.03220303696286441,0.04398132266901883,0.07137503258094043,-0.14595563347225246,-0.3993665355422813,0.16943216706797792,-34.436872294179885,24.86102837101991,15.113087578809964,1026.8670340407625
129,8.102442908763852,-4.900903880114076,1.2875522763678386,-0.0203668560023546,0.03423352426250113,0.042303322003811664,-0.2083771014000846,-0.3944387180760614,0.18486919617317385,-35.55112925995682,26.47514934478894,15.284654693544665,1026.865558436521
130,8.084045699202104,-4.883029864779432,1.258109538960684,-0.03618390221542417,0.012124161090587091,-0.028171457391162086,-0.2086622382401713,-0.3645576565700521,0.14285883534424432,-38.11193854453264,28.4874519826801,12.68591773247096,1026.863739626974
131,8.041876802639537,-4.896784298164169,1.3595521973093185,-0.02253063681421862,-0.01428949091082549,-0.08912721492916045,-0.20059355481163868,-0.32071361137209414,0.23613325830437562,-40.519725880858076,27.50986103621912,11.587328597401932,1026.862412180124
132,8.10693076412863,-5.0173859383632085,1.3869454270967583,-0.023039270333591096,-0.0341915634227312,-0.10085100588960132,-0.10384836278742497,-0.3422071407657945,0.27219219588747523,-39.70869027129481,26.16472968946405,12.061102543702457,1026.8625769267517
133,8.163932522227555,-5.127826816649175,1.3596480317996869,-0.02563107879352738,-0.007434582844251598,-0.0770277624971656,0.03103576246955138,-0.3480240971514061,0.23139608971479803,-38.24278667976562,26.299643008468166,12.349774133930444,1026.8644696609606
134,8.126027246209599,-5.159084756643154,1.4005293891982729,-0.02251035833911011,0.01503604542053236,-0.010285195094115282,0.018321080696995812,-0.32871868303121154,0.21943708949324087,-37.414523340448405,26.147154552547374,12.360556275797329,1026.8691488581437
135,8.104757392849175,-5.07211588223648,1.403247774044889,-0.016538987927056936,0.01579564623513183,0.05474769349633471,-0.006354570343454314,-0.2805540563676897,0.20234056011186022,-36.841296586878705,25.725724091483464,12.394270631612583,1026.8749548236165
136,8.06504528941364,-5.045500013298682,1.378481941342298,-0.012695199366871749,0.04277153573453425,0.08601547098963795,-0.0659703548264301,-0.2706528144359188,0.20086602825336128,-36.541800159012965,25.562540387006575,12.629898285488041,1026.8816863535988
137,8.08641515080983,-5.036902829912842,1.4039979477714575,-0.015078112675171354,0.0217421216211227,0.0812854258055688,-0.0871375872682821,-0.31537970682047817,0.2310477314557291,-36.40355073014904,25.40021413533374,12.651110814969515,1026.887856625951
138,8.075968069137392,-5.031864863996088,1.3601968672471951,-0.00898830775553162,0.03424622197492877,0.061896132883677624,-0.14029232764155078,-0.3513280301376792,0.2469430843693076,-36.268029478942,25.21481829170767,13.017882186917006,1026.8930607461118
139,8.051912114845244,-4.982521932650804,1.3593883660776578,-0.011495251678668113,0.017144292767267578,0.010457581162578083,-0.1976157395285376,-0.3377371234232664,0.22456961922524954,-36.207348542208216,24.998866754472665,13.106499813687172,1026.8970856019457
140,7.990392518112336,-4.948847788688571,1.3744255373562162,-0.0176213510562336,0.006494949427179417,-0.03625722805985241,-0.22772040266918228,-0.31281485655123553,0.2226052715913158,-35.82321205547772,24.898285859380614,12.92566405988034,1026.900249779036
141,8.011699345122482,-5.016317057276347,1.4110830454983205,-0.02973984931991299,-0.006191302700207053,-0.09432915635657037,-0.1514918107042182,-0.31789101257511176,0.21519679242246556,-35.42269539145053,24.9586713920424,12.742214477849332,1026.9040225702295
142,8.03043657270184,-5.138398688606731,1.479549160704719,-0.02170765302583695,-0.02075195389191979,-0.09407414458755305,-0.06762365867716222,-0.31810529226643747,0.20367865944252211,-35.09824162126866,25.173630832293743,12.351288024450781,1026.906776118446
143,8.06767016240206,-5.229733077886818,1.5094858904616972,-0.025814232059024743,-0.009073592461051855,-0.061776561616931625,0.022781340455259147,-0.309018271428786,0.2011689513738801,-34.75548784116768,25.541252442809395,12.64220417009759,1026.9087857785073
144,7.981376604566166,-5.251928054813898,1.5416982334335243,-0.005886064988705784,0.03566788706722928,0.04186942890935165,-0.014176822087018474,-0.27337774922803654,0.19910494131103412,-34.553763022234584,26.116204559816847,12.488998708514188,1026.9102111825189
145,8.118338720428113,-4.986687113771861,1.3616064385109132,-0.0028513652803532604,-0.006181332088857669,0.004647870616211969,-0.09649734887670691,-0.21558030791217023,0.1596265863955107,-35.687248853315815,25.451984037697727,12.982663262733308,1026.9112515047823
146,8.217785281476111,-4.890744250380172,1.2597505538278129,0.012388994699134376,-0.003081220154662466,0.012414577900990209,-0.12314485981408842,-0.19745448893376658,0.16953561125256433,-35.97284019210193,25.439231152946977,13.34263286484517,1026.9109185359591
147,8.288507144478123,-4.817017021357988,1.211034731279372,0.008611422656094025,0.0019907452946469765,0.007083834033697603,-0.13608974893135312,-0.16604277891721664,0.15068813618288848,-36.19823786949857,25.463359224660653,13.449673256941095,1026.910675520732
148,8.29098359998201,-4.83393170183449,1.129247224548686,0.010711500030674783,0.005995479648690832,0.00924577441298947,-0.17110247483524377,-0.19254057344792225,0.07066874583888574,-36.34194930911046,25.640350004211417,13.472704012693606,1026.9108485501847
149,8.329564133053683,-4.82239006828511,1.0909273108118682,-0.023747594077502883,0.033819186507468874,-0.0007397566135249924,-0.13696643901172503,-0.15984509855936646,-0.07149807182652401,-36.68380520921578,25.549886111705533,13.061739922370274,1026.9114076249075
150,8.376517306716968,-4.774949003954214,1.0830966628499372,-0.06204103208344661,0.06266128778975132,-0.009103498423255448,-0.09278554409062764,-0.13024984617021185,-0.2500406174568129,-37.36518604489896,24.820829576827947,12.459058827026706,1026.912804974169
151,8.498560164233481,-4.739508356153413,1.1074322545555546,-0.1156067099786576,0.03880642008476985,-0.04162844904554457,-0.012282636021991936,-0.1510055130940843,-0.26943330140879923,-38.678810580929564,22.817571470881006,12.046633568407916,1026.9169988861804
152,8.394381909379119,-4.65519722700032,1.114686787550766,-0.024048125063897363,-0.01262516812285644,-0.009382714333045841,-0.18687577448092763,-0.12106144579654027,0.0340714099177718,-39.05982585665308,21.516280291860806,13.388864758172453,1026.9206163086064
153,8.426150212984316,-4.661483721683746,1.1457806508008972,0.06501928160667286,-0.03117597901301333,-0.002081954323376432,-0.17637330107581212,-0.11244259996064493,0.25055663978806186,-38.58403587399796,22.078039557612147,14.262235560136006,1026.923256461893
154,8.4977193533146,-4.361029059515493,1.0839933020192196,0.03920567993161937,0.020953326047241937,0.02273002019888945,-0.21670731200846116,-0.08546172346624291,0.21345082488262676,-38.83477075371514,21.896208855485355,14.312000227272774,1026.9251833613691
155,8.309973183256682,-4.8356122227872245,1.3316619307941284,0.010548816602787111,-0.036601586496972774,-0.04083737806644697,-0.010065527038795069,-0.019999540659072723,0.27837843162075515,-36.67978245269988,24.948983464880026,13.198116551873987,1026.9265072993373
156,8.284691085840704,-4.722987338012419,1.321967506474006,0.0009129457241836818,0.04256169233247316,0.08793010195044826,-0.0075839890704519335,0.007904807099028376,0.1844776618310902,-36.59476952830456,25.126355653507062,12.680624489750272,1026.9272057073554
157,8.209162213987636,-4.642792939066237,1.3002724617267214,-0.013042897032381229,0.005104414827711901,-0.0600460654955777,-0.10913026273177046,0.009145519911478507,0.16818809915699434,-36.609414027074784,25.075485036435705,12.632294661993036,1026.9274475762247
158,8.162560788171865,-4.994828308566001,1.476532490461513,-0.02485229262716785,-0.021250416260018248,-0.046322700700480654,0.07317508165514827,0.014638398041313058,0.20955078783756032,-35.44606497930356,26.864194320250245,11.888263012817834,1026.9248414937344
159,8.109080054983329,-4.8475352709203,1.46100784067305,-0.0006196007741820497,0.028629329739167462,0.08527684795688524,-0.02339350816595437,0.0032611516042842723,0.2110255403236384,-35.55976869632311,26.490029796439575,11.989222720553862,1026.9225890680107
160,8.113849033550396,-4.7338766564781105,1.3727536266387486,-0.0015564554213169394,-0.006178466565287342,-0.01528794322073998,-0.13972791565883996,-0.05019686756949676,0.18985603218073274,-35.76093596975931,26.47919414496239,12.379639369600202,1026.9209451490879
161,8.085194023582016,-4.987711736486901,1.4830987538042189,-0.018161291487663062,-0.0271918782891194,-0.09537511398169551,0.021532370390376282,-0.026137666108870198,0.19787346219547022,-34.77848867117552,29.11458923805679,12.36471020629753,1026.9198690766189
162,7.9696830260277505,-5.045857104905501,1.5673983617720262,-0.02113853803406233,0.03265898686657398,0.05897209559878608,-0.02640776279855722,-0.06138524025963786,0.13612326164518707,-40.56898625668059,30.78585618021158,11.101932707807894,1026.9199906262152
163,7.914253330980335,-5.0244646901470755,1.4089834835210815,0.0005655407503458963,-0.04444506650237037,-0.022511291326671234,-0.17037152548457457,-0.12942817826973949,0.20950902505488206,-40.68218530699525,24.441038431653674,11.789448095109995,1026.9215219726043
164,7.7705607429643395,-5.509334474613989,1.4478425922017153,-0.0005797924540602796,-0.03744348419908418,0.010458208698787816,0.023923336249247945,-0.0961318606731813,0.17505779314679226,-34.51525132652852,24.557308660687667,11.113128781571818,1026.9234846648847
165,7.826950782472319,-5.287678593698366,1.3126394906967056,-0.05075650786764499,0.03532385063578995,0.0991699294683964,-0.024183670393395376,-0.018268604857465134,0.09561895134884402,-32.84132322547125,25.647565798155824,13.195388926783409,1026.9253707159332
166,7.8219107853481935,-5.146319091668162,1.2649508013378539,-0.05211170363018605,-0.0025325557757176,-0.029272514871254957,-0.15445794919329336,-0.04745405406560556,0.09032238868452686,-34.78593910413839,24.88662547469786,14.227696665317765,1026.9267472385752
167,7.854832845873836,-5.407006452026834,1.4218796198854071,-0.042283602001982154,-0.04594422502667121,-0.07591813391764535,0.0522801207752,-0.03588648904189222,0.18925214076420382,-33.377560132022346,24.25565089190974,17.75718926759474,1026.9277518850745
168,7.726352471956881,-5.451729878403409,1.480291160757958,-0.042295289500819226,0.058732856445048665,0.09426229225901023,0.0003238044547569305,-0.06138339719476012,0.10141795513617889,-34.04580530339756,23.277339843874305,17.86396478037266,1026.9284851200814
169,7.462417449427619,-5.79110143535899,1.6491258158491318,-0.029551663145655955,-0.028824684415603236,-0.04373945865876991,0.002624648054248319,-0.03517935268789798,0.16461621972926097,-31.911091971732766,25.02745806437548,17.09476733270549,1026.9292469281581
170,7.542141817418156,-5.57150987528844,1.6275928954843182,-0.02728267162767263,0.046827432131107155,0.07861453280579057,-0.0440279466097392,-0.019436899612896092,0.15835751099099063,-30.636161822196538,24.682681749985807,16.611355481190763,1026.9301533216576
171,7.544634176253845,-5.419244189963121,1.5512336352176577,-0.006035351774630375,0.007782302396630483,-0.02351843388171322,-0.1961436266068407,-0.03410433101170524,0.1474266885002901,-29.075959567209345,28.075111983405375,17.502881604046586,1026.9310415083844
172,7.237272745672648,-5.913229958747395,1.7670776724236021,-0.009798945921318823,0.018751537158334837,0.08112132331824362,-0.024491363833567065,0.028371437866644957,0.23327849875976703,-25.843333962520937,38.567288412670564,17.982903384254637,1026.9335654405288
173,6.926676866823175,-6.31667986388919,1.8490273623903306,-0.002879544844467438,0.01453022231997324,0.05454939063191316,0.05917683534163995,0.10618610080555466,0.22551547825232476,-31.820670848157594,46.036720824280884,14.6034904548149,1026.935407516726
174,6.653601494076524,-6.605520403718398,1.8826827016965617,-0.00951683902816738,0.02631297346831242,0.03988703303649949,0.1071031669220261,0.15673253755537894,0.11752432916083266,-37.121572582381766,47.14890406770209,11.981881408545554,1026.9367519445957
175,6.847546743665478,-6.351322863841726,1.7501452631435965,0.004915670091641122,0.014459034668571315,0.006785203353357042,0.014681915088026215,0.1003830329285822,0.1194685462554061,-35.02012152091437,37.7887683897443,9.797790323452068,1026.9365377256875
176,7.084643898154223,-6.224715724099732,1.7148989698734909,-0.026164872520864146,0.01400096751330248,0.009136693973895695,0.07668047449114479,0.0423229316278031,0.10024036689336772,-31.986411111873778,37.9387943230787,4.0597039529773955,1026.9361957820304
177,7.231507578306182,-6.189060336534468,1.7447660842177575,-0.015625232205471393,0.026268710581441125,0.0340189793621415,0.11420927110394993,-0.06966864457001179,0.2082134922360272,-33.16367245635412,34.602751086181634,2.8168035285441757,1026.9359462165764
178,7.381834999640064,-6.170533309053906,1.7882447498507552,-0.006179269879923283,0.016362252784899618,0.01358605743652792,0.15350051262240466,-0.18651226471678534,0.28864865275615303,-30.740765908449394,32.519974698234634,1.6436845950523984,1026.9340121097462
179,7.37591887871903,-6.113666005978408,1.7994602717842922,-0.017094346043769193,0.011255626513470663,0.005190858811709545,0.05850968252007682,-0.27350435661059247,0.21753014180545227,-19.58752901690172,27.141370996244493,-3.6430609320977267,1026.9326005138905
180,7.443495120072967,-6.078634637064526,1.8063079272122329,-0.015311603371690201,-0.015343734331979782,-0.012333411206454965,0.029828196648888132,-0.3350884404723202,0.24865411635796872,-16.14512557109077,25.125120856062516,-3.778111762217158,1026.932971839851
181,7.45940343041829,-5.997353934481353,1.7937080637577176,-0.0036196054967774175,-0.01588721217751644,-0.00987927261514986,-0.04749774561668211,-0.35232308101456833,0.32096379094369365,-22.802373968925117,26.238095641801372,-4.957114522564236,1026.9332428497967
182,7.446507075437787,-6.036133143301321,1.8073361573627247,-0.0008842709733388578,-0.011799234383869749,-0.002408764034621723,-0.0659137741789574,-0.4053149259943226,0.2599938739119748,-15.911047473741874,22.274102055505796,0.5131447654791934,1026.9279375626863
183,7.487423013283707,-6.0796204352326795,1.8201601366421905,-0.04083043331789891,0.03884524942529409,-0.024182498937295682,0.008873792161545366,-0.4708001259564718,0.0581966515253555,-25.44428515956217,24.533478717223325,-1.4756702848951588,1026.9240655318445
184,7.492823104485459,-6.018498006378036,1.8223792564672516,-0.05848094313543963,0.012819402587175885,-0.01297863139024055,-0.040423248382359334,-0.4810361617528039,0.05736197655650022,-23.003828870341586,26.52516502725428,-4.4889301302040865,1026.9271548946024
185,7.490837934616688,-5.928112976072493,1.8155927500910836,-0.027204318631615085,0.020946557494720224,0.012266471781704093,-0.1417856527969153,-0.4982704455792649,0.15771300517906128,-26.12618210767376,26.911510358780983,-6.253451094794186,1026.9327487775993
186,7.498100512847479,-5.798887575938356,1.7863922336561562,-0.036645821510750826,0.039236944921409354,0.0005292980862455828,-0.2275536891860424,-0.4998233875588334,0.0963876301862523,-29.20858117195928,22.45043442576838,-3.094335385108582,1026.942581983482
187,7.50553058012238,-5.687118967839307,1.7987750769604505,-0.012086365483932954,-0.014966273413228044,-0.076596425252052,-0.29258621153199504,-0.48837205489745095,0.1277234216628977,-28.827350112757546,21.509972655557824,10.628317976041178,1026.9593840833854
188,7.512414862098568,-5.727333896209147,1.8585755162690059,-0.00897172052328117,-0.0476072454575014,-0.12561765601712488,-0.22667214416798764,-0.417701680044711,0.19687967690111324,-32.09113557556155,21.78217798524516,9.159012648413906,1026.9716469916277
189,7.511349148258829,-5.896629692857335,1.9707417180905675,-0.03691204834444613,-0.01655434181195617,-0.0627297727927185,-0.07306212879973073,-0.39109830305925103,0.19931174225155196,-26.567812677873384,17.58148771802115,3.457729450295937,1026.9785770410365
190,7.450734159530835,-5.800264169476562,1.9414806340980735,0.0016787507861599354,0.0658059419843757,0.05893612642728051,-0.1744686967946972,-0.3921627284313464,0.1769090516232538,-17.06138661960272,16.219556730955397,15.336065003057321,1026.9816149365527
191,7.539112973160635,-5.573946256668696,1.765533129244659,0.004735515902672029,0.025346199123737867,-0.0014885901624100834,-0.2915564526521487,-0.4170847043880588,0.10537488347933782,-22.179899854519043,20.440539065192112,23.5286598131471,1026.977401597413
192,7.442749633262309,-5.86896353590052,1.9736631923705188,-0.000657541027477484,-0.03404410646642464,-0.0900239659553825,-0.11719282965965994,-0.3577482317291205,0.19551244055379818,-23.669447875448352,24.71369067046432,21.04251328743696,1026.9680813168648
193,7.397517718822716,-5.708852179468882,1.9331033837147242,0.006146540298255078,0.05505156282458422,0.09650575531997121,-0.21094852495931968,-0.2999151604904961,0.10885418952295216,-26.610395802732246,26.819384725664587,18.151480923747272,1026.9550542987254
194,7.394573752212615,-5.683673893258951,1.8265337875959067,-0.048044724779642715,-0.014403897895930731,-0.08265276466856719,-0.18038360740078066,-0.2215498090642427,0.028305603440316268,-27.537027055045495,27.604059557481285,15.924512201073933,1026.9401669898114
195,7.211055844421641,-5.927717627076111,1.9962347656549086,-0.025034949613373887,0.018813532577765545,0.04312573793773605,-0.08455961784572279,-0.12460075853244072,0.12248392965070247,-27.26658317126363,29.439002959666848,14.1049385348053,1026.9253029977867
196,7.409272678954404,-5.606491150177642,1.862379490879371,-0.034551596636726085,0.05339300841291784,0.05149026634515585,-0.14690181439728756,-0.06796867231544995,0.09646254333410674,-29.31439017934605,28.759135566553674,13.497804990085013,1026.9127645082792
197,7.376829454395999,-5.764466099744375,1.9495447771234695,-0.03026671936521185,-0.03953233181791813,-0.09822672857749828,-0.03295491477439348,-0.06236135526843863,0.11939396979615066,-29.497989163898445,29.692026430004525,12.204271634636324,1026.9036133695997
198,7.29363806027479,-5.905193293968819,2.036234333318553,-0.036457260730103,-0.007224227716078009,0.03320502778929768,0.022333768719903967,-0.024480722042642282,0.18261015770436223,-29.715162184671716,30.242644952516915,11.408640368035407,1026.8974291239042
199,7.355099044013218,-5.695484538164393,1.9416805014807343,-0.010870191045574826,0.043819469294201566,0.0843110977282416,-0.11128216941310515,-0.02953302021047093,0.18328979920919025,-30.855618005579,29.63484263290899,11.256682810320461,1026.8939462365472
200,7.331759870771631,-5.67821306974809,1.9093987899815443,-0.0390411995878588,-0.024101462008559657,-0.0717545690803877,-0.14016973655596704,-0.058618368618094656,0.08985506842068716,-31.51443557302986,29.66019987303645,10.53067811222496,1026.892269853348
201,7.197746952785969,-5.98643208275662,2.1352528102334696,-0.017420976991753895,-0.021033110062290517,0.016847861051762975,-0.023144607992668043,-0.030105939938039866,0.2504365866492753,-31.047607610669722,30.914995674646335,9.82958779276144,1026.8910463554832
202,7.293778856137437,-5.90429899724135,2.0675832154136673,0.02185914738025845,-0.03376573632570132,0.004388285149508529,-0.11586769520191681,-0.055898397317540635,0.2646099525694547,-31.482482923259674,31.12581551945896,9.850657857314248,1026.8875769133745
203,7.484310177156603,-5.788005613687107,1.9912891364420582,0.03098160605101087,-0.07823465803405236,-0.06645178446574274,-0.10297053656342521,-0.059180168578824174,0.32991482484385787,-31.70031310189245,31.280262209587526,10.347260959839833,1026.8833341334694
204,7.354106056166806,-5.805381363715367,2.021238228645969,0.04804850293043887,-0.05996937989901227,0.0811937402417201,-0.14399043640196707,-0.009864200991464858,0.47963698616181694,-30.646532010440144,32.23115746033655,10.409031536419084,1026.875538199606
205,7.45507149035025,-5.6912516540235405,1.9832574907078684,0.14121032433721867,-0.09275961740778504,0.06215516567105815,-0.25743834086065326,-0.12332908735069632,0.779232690429921,-30.176473715202484,32.991126657459986,10.434091143722684,1026.8650047549802
206,7.330284976830917,-5.836349212034322,2.041696475547653,0.1357494593155807,-0.15793710239316067,-0.0703623843796989,-0.19604255290109324,-0.09824248869188552,0.7841816965051268,-27.342889066394914,35.28680511396167,7.572975361544445,1026.8550908986667
207,7.27301036996185,-6.070719987107661,2.189750766810766,0.13502882695189672,-0.1388469008784506,-0.0011890164252002927,-0.10553365109171191,-0.11770968524645378,0.8222349335465395,-24.796676333950252,37.20868594936572,4.597573295279579,1026.8456292450342
208,7.303056616419742,-5.966949110902331,2.1432327557868485,0.12526919661846764,-0.04964875630533101,0.09912650814445433,-0.1400307967253958,-0.17744905683820386,0.6840794442509357,-24.105508031099397,37.68427144169963,1.4498368791883274,1026.835219789837
209,7.292122329869294,-5.8615772551182,2.0091410859864958,0.11757177886591946,-0.05621101557415348,0.04593421797569427,-0.30486482514434377,-0.2413149625500261,0.46837128218183244,-24.02632280191809,37.83690606064702,-1.6097172582025898,1026.8238713946218
210,7.191117703303972,-5.937062814436246,2.1085471474972235,0.08316092983791289,-0.09280654764025678,-0.07835751096066462,-0.24700936140724136,-0.20796684048328634,0.4162863493618856,-22.230506822747692,38.50132236484756,-4.278152098601492,1026.8153003120344
211,7.116957998973641,-6.1475741005789395,2.237505940545363,0.054235207383912534,-0.004017455911123721,0.026241301008733064,-0.09191109970746972,-0.23429004462529907,0.2509971325152298,-20.062274704759954,39.161288677826676,-6.9565612911659676,1026.8054995006821
212,7.387264564276756,-5.739651434728193,1.9467412093100052,0.04642248948405134,-0.05757599068529617,-0.05240485518132977,-0.22220232792448974,-0.2861427067285867,0.10710846695740411,-22.192499973728353,37.824238970141835,-7.502645582281224,1026.7967595418095
213,7.250061855174884,-6.039616935006448,2.1832707667675466,0.04082702128122849,-0.01094209355214356,0.002989065261164943,-0.041388818999944815,-0.28518271966560615,0.052348252296386115,-19.383468075456722,38.620740111200774,-10.007659427769287,1026.7899476767102
214,7.266373126768981,-5.831417803461338,2.125166807465499,0.021955460638336574,0.03429475512295377,0.10777119633002588,-0.13571430914304394,-0.23171868726481226,-0.023218028686460425,-20.101448838504098,38.32019965673272,-10.593531884520797,1026.784976079282
215,7.250346848066531,-5.710154707056789,2.060398324451729,0.04369114750308632,0.0012298254834098854,-0.009089816245692772,-0.2519070921366441,-0.26950853362688765,-0.13242839566403367,-20.71103335181644,38.03175853166602,-11.604078774370855,1026.7813475897817
216,7.093528751876423,-6.170965803987589,2.3183393071559064,-0.048812378522736954,0.060174364902877975,-0.0965844006755802,0.08169991214312033,-0.4252789678048815,-0.44418245814890855,-17.576254700207542,39.01669148964599,-13.79734737029121,1026.7814201024696
217,7.206098278077535,-5.88320308143066,2.2816017480854685,-0.10311134916000397,0.06737520354004904,0.0353524660471458,0.08306028005200897,-0.22489839758052307,-0.4349590614493693,-19.020949636962197,38.95653486876421,-12.153911596175204,1026.7814730254042
218,7.2808974554255235,-5.694835226744368,2.155921580347965,-0.011015563472529882,-0.014082493137434204,-0.02439085804878477,-0.13546257321964067,-0.26975078872704833,-0.14002889731126922,-20.550331933478997,38.31080147595117,-9.57499309780833,1026.781182060301
219,7.263476050479777,-5.957436854292074,2.291696540740675,0.012820993192364315,-0.053456069766780294,-0.09651326242323569,0.0333379391328871,-0.23912549954028786,0.019970562520851748,-19.022053866704137,39.18031358317063,-9.23647794634497,1026.7801451844691
220,7.152953311294829,-5.987469692497279,2.2929134552532124,0.0013552773344909837,0.032380725407721515,0.05749652966093452,-0.015466615755595658,-0.24450363924753646,-0.03163704743240274,-18.514347973237783,39.31187071966863,-9.356361333267063,1026.7781929858465
221,7.274340892438809,-5.795295839771568,2.1133248923387185,0.005274841658879513,0.008269535788845164,0.030988910440712152,-0.14598639984414047,-0.27237510815970445,-0.09175941926907172,-19.71984731596111,39.04192460080811,-8.695794371171894,1026.7767681858088
222,7.188962264525749,-5.872814835193376,2.1982073356879464,0.007895974082383135,-0.06064529498646613,-0.09817133947248367,-0.10890189808412645,-0.21827620791108604,-0.021773645817936546,-18.67343656503624,39.69785529404576,-9.941435873367453,1026.777356535841
223,7.143106538926145,-6.030646492571913,2.303874103584762,-0.0082856899801632,-0.006229272036817515,0.018295753917811006,0.008468585707005843,-0.19688588815811978,-0.07915806522101347,-18.015783275165102,39.51314088371922,-10.867226759681383,1026.779414170946
224,7.265191361360669,-5.820641160087726,2.197900383377957,-0.03057957289040129,0.05382516886365883,0.07025714948485484,-0.05705566630098452,-0.1851353955563902,-0.12034372661673615,-18.96595851644797,38.95156475357445,-9.876075315848908,1026.7822350959282
225,7.225128032097853,-5.69931570640668,2.1558750942075107,-0.012211562932508697,-0.004623798401837839,-0.04530198434550316,-0.2004098019265191,-0.1617133355683616,-0.12041431293935458,-19.522657663506074,38.86416337929017,-9.814549988637088,1026.7872826686753
226,7.215821925953186,-5.938002833024372,2.350637884288819,-0.024626565206990775,-0.04262811929948663,-0.07912681107518364,-0.021909925654994444,-0.19224012176791513,-0.03654640080756122,-18.39648523249835,39.3600253178182,-10.173883221058661,1026.7932132273477
227,7.143740611347096,-5.9846550081810355,2.349196340273756,-0.025820186209608808,0.019554709748078554,0.05997937728912693,-0.03598722580970719,-0.1960892273353304,-0.06519681883648079,-17.959502793716734,39.24129444627724,-10.256155071783928,1026.7989637110543
228,7.245250744889454,-5.801060371060368,2.1873884666542467,-0.02433095594214531,0.04708531186091816,0.06449864294642567,-0.14490624133920976,-0.22493274534552996,-0.1518422397581416,-19.18966656111618,38.871276339124094,-10.1349309684101,1026.8033667950558
229,7.247255910166301,-5.7937910662756895,2.159447535908108,-0.024980601962240837,-0.038191465706229735,-0.07912885844326108,-0.12257517703014542,-0.20780833015573258,-0.10020717769849669,-19.044366117601253,39.25213823683598,-10.239292896593982,1026.806580358563
230,7.173385876871971,-5.9998410944371035,2.3546173233125565,-0.022340823176934598,-0.028178877687649692,-0.044814468249364726,-0.016582454571445998,-0.18056107865395135,0.023364278672293584,-17.7930655906855,39.88129723962251,-10.937992214341175,1026.8089257579265
231,7.154793484378005,-5.9702492509656,2.3133671026441798,-0.02688730124639481,0.04421122309530191,0.05987357970628778,-0.02262954091279107,-0.17782159088272528,-0.061636156845747705,-18.07976759707108,39.495369157845715,-11.323649660838894,1026.8089474358212
232,7.21004198963689,-5.83145539187355,2.1663224523684352,-0.004494331658641985,0.03624161395403709,0.06309916111807627,-0.15784536724201895,-0.20430199330770588,-0.07901717960029819,-19.323450906701794,39.11256346894995,-10.791992845861191,1026.8051294704953
233,7.136402733647388,-5.8416025982919635,2.1681086843558353,-0.019124330645863254,-0.0360981738108946,-0.07495451391533865,-0.20098815291580308,-0.19613635331077744,-0.0382108258890342,-19.211568002576602,39.21098980960431,-10.858707640577224,1026.800838452275
234,7.190851347272843,-6.123514044665283,2.3105960736505633,-0.018318540747583108,-0.052769595986799436,-0.06309694084356277,0.01369542589008621,-0.22709548034389582,0.043926081357720706,-17.930395987343825,40.03322570269496,-11.221778873898602,1026.7964285702437
235,7.070818550269043,-6.049236698067457,2.3383323416325896,0.02846130001436216,0.03475458049206061,0.07244497307842784,-0.11843981833360703,-0.21217869204332754,0.10795008018329193,-18.52540848364631,40.27464675738604,-12.194562909847738,1026.7897474530694
236,7.165437391759529,-5.9060445782888005,2.203209229914951,-0.009833454162481527,0.0611091971358487,0.054826475654145085,-0.1994499253798115,-0.25043472889573,-0.03799832550733785,-19.539790767468613,39.83118001428157,-12.848363780273617,1026.7789351387582
237,7.135953880604143,-5.932292603602202,2.248598928416164,-0.0020984515206106443,-0.03407930905032025,-0.08700566791301179,-0.18137732621043615,-0.24373910496573628,0.017505621386281936,-18.698631679377492,39.88508697585489,-12.84118387563705,1026.7674164508662
238,7.028518708777525,-6.171516013335294,2.3560807643828094,-0.0014897116801154352,-0.021080719792970458,-0.0074212768918598265,-0.07200899028156117,-0.23928567652490476,0.03492115098543998,-16.859993228998732,40.59787756515885,-13.411892742112995,1026.7499199321562
239,7.082894631554763,-5.985148158421512,2.250559634471783,-0.014416475286544264,0.028276812788370062,0.09108999526940531,-0.12398044896749327,-0.17369741589848436,-0.009473799582415884,-17.53395338985307,40.602204745597916,-12.956468135815218,1026.7324611052925
240,7.1682284854993155,-5.907253006138752,2.052309367517773,0.012042318262760294,-0.028193049689521667,-0.013746652642258272,-0.20347157333834118,-0.24412162258971515,-0.012089646851460677,-18.687773977229284,41.707602478979986,-12.294212638056539,1026.7150297875885
241,7.008748532410472,-6.220001607682362,2.168095725989803,-0.0161189352185692,-0.022636097089152356,-0.06623377237729405,-0.07627002523377663,-0.22037788321932414,-0.03103346033590252,-17.273258314638994,45.509091371593655,-13.45727699409559,1026.6977938786554
242,7.050529027339234,-6.165792360654531,2.1784761523665783,-0.024263367805402593,0.02674637252369579,0.05723528627789058,-0.052251738089195435,-0.22439243222708868,-0.027741461095859926,-20.756818654587395,49.86902102016653,-13.77547068226211,1026.6852143575877
243,7.117760591592184,-5.910735744276061,1.9771871065707056,-0.016938942387551156,-0.002556795435341059,0.005958706418491125,-0.20792303782080723,-0.15270596412731688,-0.013229908259695042,-28.374472888738257,47.586369190863586,-14.71321340812012,1026.6770225843268
244,7.056419589573598,-6.10015816790057,2.192185181645022,-0.01191213440293102,-0.04430283327869437,-0.06673794566908825,-0.07975830297455905,-0.12634790754356046,0.05726700854146974,-26.47020848542128,44.34923981386999,-16.658073221137727,1026.6809785940338
245,7.061943471099998,-6.067050883227183,2.2713961781521537,-0.046613462035051796,0.026912594873502005,0.027333213278087562,0.01828041799033696,-0.029564957411275752,-0.014815679018102268,-23.87970353760452,41.69631081182998,-15.995296710470923,1026.6926256783142
246,7.148573404012983,-5.954491626663348,2.251149824002693,-0.015647232222439796,0.05558606564926803,0.07673148364311896,-0.031115994191215454,-0.04330815509797692,0.05558805354788551,-22.93135246178085,39.83395490777171,-15.766244013436912,1026.7088553996477
247,7.150822656442091,-5.877608342737254,2.225148377430707,-0.017412755600109273,0.02303183558396124,-0.004420942626182478,-0.10388974440455462,-0.08914399911235138,-0.025136772665378185,-20.823042575983926,38.8645831383845,-15.681544515286173,1026.7277289449542
248,7.072133132484272,-5.986188802433042,2.3401250718969,-0.031022957466579758,-0.013667930434140364,-0.0924999117939709,-0.07486284401855955,-0.1276746274908765,-0.07639824536200815,-19.28690013116777,39.4281082344158,-15.400125901015452,1026.7418127434623
249,7.093104892886766,-6.133384320813163,2.4399768763826057,-0.07600955721995738,0.0291824946392992,-0.07612529375471212,0.12001378923397071,-0.14093371291942053,-0.15980061930302009,-17.94183413956035,40.24561734968456,-14.83071116551823,1026.752091716317
250,7.041579493401398,-6.108087153625372,2.4602192359395425,-0.07255617262207478,0.09816643516254196,0.016932588240107127,0.09951841740401951,-0.15360106766505288,-0.23532655044608666,-18.189329001194093,40.437033835360594,-13.427189583983903,1026.7568938196216
251,7.1251423883571805,-5.943644634320456,2.3637395254170075,-0.07814064738055683,0.08621254565913258,0.04487365415228945,-0.02427038562036192,-0.16179344607097373,-0.18935981579817307,-19.693428058290703,40.19482209463976,-11.260644678952612,1026.7603780730165
252,7.090798188608174,-5.914487449666687,2.3014251368872594,-0.03729683283381002,-0.010586036962136752,-0.06343699049443993,-0.1603248640432377,-0.19373911678029332,-0.06399257066687936,-20.36415639302691,40.219589866628965,-9.470619119276137,1026.762921033713
253,7.0533468921603255,-6.12290001786663,2.437771223518314,-0.02081803937376646,-0.033372778158518066,-0.08721640234141219,-0.07016749442725688,-0.20101038871122226,0.04728107208534352,-19.34300406798584,40.88434749066329,-9.18878033308486,1026.7681571923038
254,7.422034002022793,-5.600334885091322,2.1187961922620993,-0.03971171555630881,0.04953673782262631,-0.052297168617220724,-0.1274470881936708,-0.20735605498345622,-0.19285456986978206,-22.412772439063303,39.45005117203111,-8.55438260399335,1026.7719787701249
255,7.6249148701298015,-5.540427823299741,2.0668267226909642,-0.18940132839885565,0.21705092232527212,-0.008246268284374393,0.15008695173663117,-0.2807128677660331,-0.7122068605839857,-23.744942222385085,38.842727304979576,-8.652886720538183,1026.7712639988904
256,7.430051730699381,-5.639754330933159,2.2531785480225444,-0.19270687172099749,0.1031196133408611,-0.177245221507169,0.18332446820236364,-0.17469953053763798,-0.6309911534807824,-25.091013547953626,37.94500205207152,-5.92661032679565,1026.7695880851297
257,7.238940269309134,-5.916410173453873,2.382851027623887,-0.17073904617696073,0.10814504215370767,-0.043668038786562,0.1745240526721713,-0.15758160316350814,-0.42541856575621106,-26.417399488749044,37.28923056003095,-3.1884861541476335,1026.767210687467
258,7.3350023731903375,-5.771542874844328,2.260539502941739,-0.12195878818347473,0.12295765835671456,-0.0001602591364417913,0.012747477812913549,-0.193745194556273,-0.2751482842171374,-28.64207831942942,35.003109681924,0.1356398608013878,1026.7642182515408
259,7.211637970620569,-5.834725064280817,2.318793091742522,-0.07649698950740973,0.014792775294654711,-0.13567301907046098,-0.08523213059481398,-0.1805346970854026,-0.08000828164729959,-29.376961072582798,34.22655350744036,2.3133370448523873,1026.7620342407688
260,6.96859534591697,-6.1140690124725445,2.4442786436309154,-0.07237563350256715,0.10193368336233052,0.03568363978766731,-0.06968391169630977,-0.18204891443117038,-0.039671545407932975,-28.90832619645533,34.79702392528975,2.7857371181695343,1026.7634081902172
261,6.908645210001401,-6.078170935684731,2.445351216936388,-0.028669829298624425,-0.021206312857723703,-0.10706285392796402,-0.17999249642139908,-0.16486253821939323,0.10352897994930393,-29.353308901406955,34.30338820688783,4.129547495514119,1026.7735419684923
262,6.739667442274551,-6.290210567587858,2.559299470638316,-0.016199467387683165,0.05937846399162991,0.06425565117916196,-0.1525165834443486,-0.16526557136349837,0.13728416958005998,-28.6022747472183,34.99040499648962,4.22147366563169,1026.792150336878
263,6.16716890980378,-6.775037753358403,2.6518717033097774,-0.031264517657903716,0.0688995661932855,0.03680412546036625,-0.31050641659588174,-0.2539006595828909,0.03220256705249247,-26.948295198806715,36.39328153715882,3.5980553429963495,1026.8139143004528
264,5.879282988858246,-7.018567349839736,2.7746379034587574,0.0056166011870134175,0.0023614005736718735,0.0226969383547575,-0.4250672332186123,-0.2638801602741878,0.12288384926721964,-26.474944406678365,37.02551528063918,3.7625364546073508,1026.8354462096822
265,5.676752424175163,-7.225819540832414,2.7956436420823563,-0.00933826217332622,0.04297888820310107,0.005457391364881305,-0.5052467291367584,-0.33597369094107005,0.02890643975873712,-25.725722295652425,37.78378343206875,3.2766144904310295,1026.855324517261
266,5.848985372205739,-7.133947644361219,2.86934913041609,0.018670800876006435,-0.053488028294547255,-0.0494870430809585,-0.4059579885434668,-0.27687809556259085,0.09960178751800348,-26.292551599488327,37.55791003036753,3.363513029086041,1026.871337346666
267,6.584440133007719,-6.319731028186659,2.445144798372572,0.04930490429489347,-0.0799628603892833,-0.08798257024916212,-0.34778062641551694,-0.15463963947670106,0.19543637817245058,-28.738174668067497,35.137099892761405,5.76778308970575,1026.8830242107376
268,6.758404561237981,-6.165446381520656,2.3376538423018216,0.025943740493968446,0.053759103109663864,0.10236432980893734,-0.18832319377127088,-0.012195424471459188,0.18461317178810846,-28.045884060945088,35.702838318830224,5.963254388494909,1026.8908940744136
269,6.720040371935324,-6.29967869907302,2.419274709456942,0.0019379058194304855,0.002863179741120228,-0.06887972754466787,-0.0008355370235660631,0.09680767407793356,0.15324827749200787,-26.78195749858209,36.818300826947485,5.465676070244537,1026.894411758345
270,6.881730925817537,-6.197314886963226,2.393485838221345,-0.08380327368251601,0.10518255051454775,0.023082438765016602,0.16313433678096534,0.1489991060974124,-0.03137578528405782,-27.965893160625654,36.03912099312435,4.99326723291893,1026.8941349135125
271,6.980668437710555,-6.015537073124658,2.275897394447222,-0.0407262961257518,0.02030152558775307,-0.018107281136506136,0.0048019949289807295,0.1692948688152994,0.15432448863745565,-29.428748920953144,34.46489111194516,6.943549287589514,1026.892283826514
272,6.891502714098436,-6.111126111235421,2.4005685978333218,-0.0017750557937453934,-0.05656978028633092,-0.07731333738489526,-0.09269029105725174,0.09659320224411289,0.3294445603176279,-29.349875686499164,34.654159389345004,7.2892056200769915,1026.8902836367895
273,6.908302922132829,-6.273151749823561,2.5344714867778975,-0.017995250540814627,-0.025611027355806334,-0.05293871671134517,-0.003334691438962381,0.014483177221540175,0.38886160043101614,-29.25951980679961,35.15618204790284,6.972043637129075,1026.888174625367
274,6.8352490395880725,-6.257382069885351,2.52077577564514,-0.004826599413960466,0.05053930441785301,0.03769445223429405,-0.09496387456511174,-0.014986433277336966,0.33681367854462285,-29.48064530052153,34.96958850413801,6.959524722278562,1026.8836671701813
275,6.935806032483008,-6.156309239267804,2.4295762381914225,-0.007784274430814142,0.05438370238604963,0.05592785354782108,-0.15602616421364163,-0.0672446597909421,0.3157546927293115,-30.273841472762616,34.210276404814756,7.449030663826764,1026.8787905344252
276,6.954741237615024,-6.065903643328693,2.3387925312213933,0.006973095242624228,0.01265222641196679,-0.01872509361348275,-0.25283717494962316,-0.082051761393231,0.2984972804110974,-30.863205309723934,33.60068063863666,7.922165665257063,1026.8743244377085
277,6.978106359996103,-6.085091635963526,2.4756953056976814,0.01684230251577145,-0.036431913228443885,-0.0816508701349276,-0.2171084706008994,-0.1272216956237105,0.347691871127223,-30.877011783487447,33.66683044893256,7.505929529348562,1026.869251055956
278,7.038663888962178,-6.117298427910547,2.5907922550716,-0.006849811064794899,-0.03816577091579823,-0.08265126214811269,-0.15117071586605912,-0.11848053514967516,0.4732786448765116,-30.788570810571674,33.74041032751687,7.645015035067419,1026.863754982865
279,7.0467848260510495,-6.123764280547863,2.5972671924890935,0.014420036764943092,0.008536996472421302,0.0119477573905835,-0.12346052353426024,-0.13366214003736285,0.43247421287722176,-30.329314498114822,34.12538110022871,7.41143359551907,1026.858321605761
280,7.073950439017669,-6.066795305816463,2.532669330353523,-0.0062873208090185595,0.04725240342098667,0.05662450299410725,-0.13017512805017944,-0.1509661775734908,0.35542525716237094,-30.403968994339873,34.05373369205678,7.334008678561117,1026.8522745356206
281,7.095006908599714,-6.001739645340931,2.4439705950655033,0.008110032301121502,0.05094152565149745,0.06902223835694538,-0.20310334008289535,-0.15114506528064586,0.3199842402185132,-30.556801692675432,33.899924386742676,7.533599358145626,1026.8466654076485
282,7.065595094801094,-5.978483702806382,2.373158117786371,0.016397569270328486,0.028746814364337438,0.009913632022705142,-0.2715819674134968,-0.16487001783342042,0.34503702907726624,-30.43488616700665,33.98155414764294,7.700732578908881,1026.8425716204413
283,7.03850071817724,-5.9977700253977675,2.376740470092869,0.018144443767821386,-0.015188199482992326,-0.04841435460618696,-0.2885161100682794,-0.17592762039381535,0.3689765726534259,-29.463712181129242,34.04565727852308,6.9674113878842245,1026.841438957985
284,6.966450742302138,-6.099638752008507,2.447459994753262,0.015941032194961,-0.03704043467094499,-0.08064534166820714,-0.24417769972994602,-0.16049133941933613,0.40143171773002206,-28.562444488319027,34.80864480203282,6.4594335115506905,1026.8438687543053
285,6.973681147293192,-6.228717878600924,2.5128459517887918,-0.005061585534367648,-0.01865735889874043,-0.07824356882401727,-0.13686695100908924,-0.16068417053197132,0.4089491254089194,-27.890117566133725,35.50285831271908,6.195090840219853,1026.8486721981283
286,6.953170856556934,-6.30713876870873,2.4995364378325933,0.0014691319720267371,-0.005391667054793221,-0.022480764304477555,-0.08753625901086637,-0.17569149929090938,0.3658697127522935,-27.368450254333126,36.12709465720657,5.928633134371093,1026.852177961764
287,6.957534168411887,-6.268713039863558,2.4865120806940273,-0.009629698808377083,0.021449834647478985,0.024390078647637967,-0.10260540570091192,-0.1737085942558388,0.35507444279239075,-27.426484472313877,36.1503249008809,5.994960022980501,1026.8537678414004
288,6.93131911561533,-6.233490943985624,2.451930836859596,0.014111259827456802,0.04030129049441454,0.0591507760551665,-0.15288538138320487,-0.1784563372653947,0.3328751340270992,-27.460818149498433,36.13890965877811,6.02501952226596,1026.849919509009
289,6.901281271048596,-6.2507250727149595,2.4335261154971466,0.01340143198035102,0.04507363662081996,0.06762201239711041,-0.2060357919620817,-0.20745347979799802,0.3557395411436408,-27.331671153725686,36.32065401498391,6.047915712997301,1026.8443695524365
290,6.924059251238387,-6.275355993310359,2.3612090789234172,0.018062555517478388,0.052266868538919736,0.056024326546269085,-0.19162493708760317,-0.23158058856577735,0.3457104032595297,-26.96475657095399,36.71497210539561,6.038529230584108,1026.8375776760258
291,6.87443913063858,-6.261173738752231,2.3253317733811105,0.028010412704235647,0.03315304750018116,0.028361368981267697,-0.2730968694246923,-0.24497642439327852,0.3236838177123493,-26.744476833966424,37.03058193949708,5.812219858531859,1026.826890653964
292,6.8703414648065575,-6.267598097159758,2.2679539902646186,0.0060436269728018945,0.016887667277179795,-0.018505582827452717,-0.25842491955215446,-0.23804324893870105,0.16473509856808377,-26.53894213235503,37.46871408930018,5.11827929491436,1026.8182252167958
293,6.833066798192452,-6.271529708099544,2.3618462536125855,-0.003833693719033469,-0.023747247270238706,-0.07186830912258335,-0.22555074994856134,-0.22265085918338962,0.2359380612013504,-26.367049632360104,37.60413699166647,5.071549048385619,1026.811900801307
294,6.7964365134521625,-6.348175888923016,2.4590136953250417,0.0005837010246061234,-0.029555508533787793,-0.0886410103753576,-0.18150178218143348,-0.21489621262261724,0.2601948774547913,-25.872242615479557,37.930423645786526,4.680110167791612,1026.8099851772868
295,6.808436114777265,-6.441980740125585,2.533178440238557,-0.019188686819958126,-0.011212108526394989,-0.09656498960086723,-0.06997376815242995,-0.2442207389385022,0.2579569204301868,-25.51226897706832,38.19250648370736,4.298289556859081,1026.8114107437218
296,6.782329198011331,-6.518813619475733,2.5746176508906893,-0.010259882769439795,0.006223916869206515,-0.039035813836998855,-0.029738057846675173,-0.24683956790287756,0.2352176785832344,-25.14596831904138,38.42789579702095,4.001981674077376,1026.8160375082416
297,6.749285293586328,-6.407902272459202,2.646543895455025,0.01097339381487275,0.022853508953301762,0.025610590210916294,-0.08744350264958287,-0.19116885880184126,0.21359770343490828,-25.451466699263282,38.22000978032274,3.5849883780425067,1026.8194143235853
298,6.8125452223255145,-6.330120286760947,2.621763636645041,-0.004323021181996909,0.037364313611938114,0.04443051392206973,-0.057768724804914066,-0.20094589988193723,0.16011298433902876,-25.65117997874993,37.9875912733478,3.3085080311441892,1026.8199621129643
299,6.8355352599975,-6.270163350283029,2.595805997179798,-0.011923228823255819,0.07270571267218814,0.05470268990865436,-0.10570022705645796,-0.22265421463693236,0.1457132471256136,-26.08342080295765,37.71684438649147,3.3364065167472408,1026.818980875085
300,6.874253989733882,-6.205627911604776,2.5997529073265784,-0.008799341258006566,0.06374448300901811,0.057229482864215774,-0.14247291303951598,-0.22602060260620643,0.16270797672546708,-26.61208560211032,37.410353136282524,3.5351506301033235,1026.8159767717555
301,6.877659770683058,-6.18374926438303,2.5617760229506046,-0.00995609283951997,0.04403661061735198,0.025701071279152936,-0.17433174861451117,-0.23551544807476424,0.14442397400366624,-26.74965219776124,37.41362535455665,3.6565598711854146,1026.8105483144957
302,6.819658723714945,-6.189835266842117,2.5604357922324112,0.007140839546352067,0.0016641932236003756,-0.011327537987975055,-0.2309555343793627,-0.24249464961553807,0.15683167705074086,-26.75325906335219,37.33513722213071,3.7936659203929777,1026.805349883704
303,6.797263502364938,-6.225348607585545,2.559807409618566,0.0003610839991037354,-0.044909225172409376,-0.06263051601938957,-0.21576378781646496,-0.21862805756045928,0.2040693558070526,-26.325547539412888,37.561539346312784,3.9032707072315973,1026.8015558412826
304,6.753986810036866,-6.317420544893094,2.570528267209143,-0.017320215354823473,-0.027389992703701887,-0.09377380083109212,-0.18249818299685333,-0.2204471031495233,0.21971504733697433,-25.808104566307133,37.87086278182798,3.99162496765158,1026.7996523634922
305,6.76905240499775,-6.459079628985065,2.592814734478876,-0.023406210672829473,-0.028420755912944254,-0.0759516194928067,-0.052991705022877145,-0.255521037014012,0.15154077711699998,-25.27548847459319,38.32898098089796,3.5562370272255976,1026.7983455196957
306,6.770580563586478,-6.447036746270696,2.6658273902866796,-0.050435099683862505,-0.006249520059065702,-0.03410823657010815,-0.020959720478040567,-0.21678759028135813,0.1993469931031207,-25.51791297712132,38.17108449402213,3.624780180217714,1026.7974741255134
307,6.731894390205134,-6.388516865181733,2.702661154820287,0.0025076214857160453,0.03360292292412087,0.04187715368765756,-0.10185613527541179,-0.23409963625967067,0.2636298787547948,-25.68370034415796,37.8367183564734,3.847327790098612,1026.8007543283297
308,6.728764093290473,-6.3110044628554345,2.6661740368271314,-0.004819889827902395,0.06725773977130578,0.08348180308031589,-0.17807138084033458,-0.2542611162506125,0.2057084814744106,-26.106143493263957,37.620306491595336,3.708853948226588,1026.8032515636519
309,6.752601834595251,-6.263307271152852,2.6155473898005743,0.016249372330249895,0.053990177875959014,0.054396803721911045,-0.23617140526004218,-0.2881157027081033,0.1345359692305902,-26.490489348732762,37.46460491999987,3.515070779684902,1026.8051357509557
310,6.756477556267517,-6.169761677917496,2.583303367302321,-0.02785173413064767,-0.017621483586082842,-0.06612205282074396,-0.21374290584055092,-0.20883542399732877,0.08396134252942151,-26.507651746128722,37.305418772826904,3.5384114250222436,1026.8069645056348
311,6.751201074266523,-6.303653788189167,2.6824006564647167,0.00842893058277247,-0.0695304882037728,-0.09543436468341251,-0.17089326779450575,-0.2359260253585303,0.3089987969743657,-26.06562997789859,37.699293708654984,4.09429696705153,1026.8082992108773
312,6.748320912068888,-6.41310493067366,2.737630348407905,0.001706920551915801,-0.02234205688542308,-0.015106313916509295,-0.031084307544761353,-0.21709644322064972,0.2282704320600365,-25.04596340990135,38.408124516535935,3.328920058304153,1026.810200783483
313,6.722789908876739,-6.325451034781141,2.6639595049855966,-0.0039212979713924186,0.0223693163823619,0.0643182494780547,-0.08584602331213835,-0.15584394110771158,0.19968465144451397,-25.233714730130348,38.35001829655697,3.5756092526620993,1026.8118152954985
314,6.798607476275742,-6.238880198592803,2.600867207373311,-0.008544731583540473,0.04834462497623182,0.08110271937237308,-0.12287298601900451,-0.15454763529848325,0.18643686291999814,-25.82201867809294,38.08601266044574,3.6850148181719202,1026.8137770900785
315,6.826959427673129,-6.168669955074609,2.5251424611608906,0.007494395345800375,0.01153294181481107,0.03639445519610204,-0.19645692723092395,-0.1723487573679771,0.1659895300076362,-26.15138750015961,37.85804565713318,3.7179481075273078,1026.815208893666
316,6.7929990305636405,-6.139750879217203,2.5620470856392106,0.0062237868754361665,-0.02942270722251502,-0.06270982765951294,-0.22845599214045714,-0.14457702472543424,0.24078518722731015,-25.89033673008779,37.921138062008936,3.764622473157763,1026.8162538866204
317,6.756074910627208,-6.276642470478276,2.6705388489783184,0.010904011503797653,-0.04867752234869491,-0.08661590651786254,-0.14745040871349901,-0.17071394264647544,0.23092551709813555,-25.12777562714693,38.79520368876846,3.0942002150336907,1026.8163773786393
318,6.785284988147206,-6.347098360758501,2.7776806466270383,-0.008802802337714433,-0.03412307799459704,-0.0387518634610626,-0.011699558916266534,-0.15672384244378781,0.22761609841418612,-24.4860611165255,39.34845546824736,2.3008381806993783,1026.816302713233
319,6.683946132248907,-6.362695214888289,2.7500904457846773,0.0070492924489757285,-0.009653707711597376,0.08760332929405695,-0.06934772425850567,-0.14963085121199615,0.2086345044006483,-23.89809663700997,39.629310234157145,1.9656246132592483,1026.815733031254
320,6.622983703962777,-6.420228393417132,2.6115112278898946,-0.0012306730317040576,0.04000388989028132,0.10996379845079689,-0.14188685369829307,-0.20367676062582485,0.13383793934375438,-23.503942644155124,39.960280320193824,1.6961655552306794,1026.8143690040968
321,6.625710860258812,-6.350285774648678,2.5005489489674155,-0.022784138890442996,0.04235807621114751,0.005478615092720074,-0.19372073079287483,-0.18716939557011877,0.0159931605395513,-23.69885206885365,39.823364363649084,1.5330543487144301,1026.8128993531975
322,6.596918612432478,-6.360600161536756,2.6434166770443084,-0.011391278045706858,-0.052751263944091464,-0.07834985203934583,-0.1717697788613561,-0.1615642528783125,0.1299502824224609,-23.438489311632694,40.02371596347799,1.3496456905769167,1026.810095441534
323,6.586045559553269,-6.496887982490084,2.8716391286639054,0.013780207238144533,-0.05439116546728886,-0.06027754541011168,-0.07932088264310865,-0.15292210436021775,0.29990811872067596,-22.587866613658267,40.62610525049469,1.0622442096606108,1026.8063177279403
324,6.530592882937732,-6.527475637540614,2.910455620561422,-0.000915593420947932,0.02424236862817592,0.024350617079118203,-0.011588922313779476,-0.14245607463055548,0.17667858100727124,-21.81038202346686,41.02381828966308,0.032722683041984446,1026.803354457951
325,6.592129336715051,-6.3911854736420395,2.8700977157260374,-0.03829196395283292,0.07359074782567343,0.05314456265293188,-0.01845322918242424,-0.10472166622188733,0.08526911410347539,-22.603571855699915,40.6833370277496,-0.0464067776177073,1026.8008826750502
326,6.6612418525178825,-6.295026117082202,2.7842864885233496,-0.018663556886622332,0.04994789369266733,0.053556220636993085,-0.11468335460582098,-0.1233631445214114,0.13783515717898565,-23.46136249258949,40.18858392691966,0.6892349627075797,1026.7967083090516
327,6.644009182278881,-6.250688209099578,2.722549900184695,0.0019764164762494756,-0.004381424568608558,-0.01732849525505817,-0.2111124524500449,-0.11681676981282912,0.16442053865175657,-23.604627679233015,40.02730491741686,1.0565476624810726,1026.7896012260937
328,6.622991114056955,-6.267272763769083,2.8009716238952147,0.006355184888398967,-0.046938412231194146,-0.06678892328396313,-0.18008296749147396,-0.0991603944750764,0.22821275254028472,-23.270697743554393,40.25050612370126,0.8795023740526647,1026.78051851317
329,6.643838753277394,-6.407405414907945,2.8211356821112816,-0.015591230001909246,-0.0312945586537553,-0.09061712690249978,-0.03106618341128453,-0.13298919214732657,0.16205182207874022,-22.430782809355616,40.69313873175996,0.4313296515649146,1026.7706330885853
330,6.672525631624316,-6.4894448641362406,2.8004570903884294,-0.03507851510831998,-0.020251477749137138,-0.05312606188732657,0.054931526908884046,-0.13809830374531087,0.18393220659327184,-22.07929265090144,40.89899165628261,0.7628087283819649,1026.7593783568668
331,6.617777718466346,-6.505347570543926,2.798374553225686,0.0028365849372024923,-0.011489384907506929,0.01999888360855486,-0.026411323616824217,-0.15764979514497182,0.27064821970838043,-21.916707560185493,40.93430280153614,1.022158549616291,1026.7442800402441
332,6.61179950317222,-6.455800125513787,2.7480007030080733,0.024687131363413575,0.04042133485421849,0.074299830486773,-0.10297694309269392,-0.17847247385834586,0.28547684953438834,-21.924107230593833,40.8930064533908,0.8719151655568227,1026.7303132233744
333,6.707478757635357,-6.354150719407302,2.6849589567211862,-0.004522352813431538,0.058056909858800285,0.0709655428205632,-0.08880412132082048,-0.14796136443467828,0.23790419204738977,-22.08978324205222,40.92963113817979,0.5089436619460508,1026.7173988856323
334,6.7142898120053935,-6.303751376626046,2.632571046224785,-0.0003878857880345848,0.019633895419772285,0.049959456065513386,-0.16756888849697688,-0.152982153352079,0.25549144265508317,-22.17951819626203,40.99868189978334,0.38199960590006093,1026.7036244617548
335,6.691445737287404,-6.286979016691534,2.615070746784383,0.0124373502700372,-0.022013422742222996,0.014274988894200022,-0.20591807110063048,-0.11207030719254661,0.2811015321373014,-21.893459371365367,41.44377546325107,0.03850357910179558,1026.6935712840527
336,6.638201506909407,-6.295979503896654,2.6596810478620476,0.028852319733882574,-0.02703231768668759,-0.0076875063535742985,-0.2341782542080433,-0.11784477319660908,0.3139918898670536,-21.45381112774913,41.600404952638954,-0.695533075315241,1026.6894289021175
337,6.567021608612638,-6.549570530619407,2.8174980213133867,0.007136861703153648,0.03432796110592339,-0.06456734678722215,0.08048745761303525,-0.22765827804832417,-0.08610785182838265,-19.367948577824805,42.24750821081463,-3.5552450321404887,1026.6887346270964
338,6.968790035220126,-6.428010081895871,2.7221528521870018,-0.1107039621867913,0.09962378278087847,-0.1787317072024882,0.4655938973599597,-0.35247095917644267,-0.6848392024944993,-21.50715096838769,41.07017255066749,-4.899659726049548,1026.693463272015
339,6.912817487134949,-6.528044279174865,2.8813340560999916,-0.17789968229939868,0.13336172370222393,-0.18556812011015505,0.6650493028722431,-0.42971836039535216,-0.909594365286834,-23.82305310799694,39.37053151940269,-5.298328938696593,1026.7004698349613
340,6.807698568575619,-6.50630012515012,2.919514516524459,-0.203273496729024,0.13344235751697658,-0.12834914931925018,0.5892592691398563,-0.3540288534904929,-0.8442495858435786,-26.951031725202494,36.629051894654,-4.409562241358715,1026.7091389222303
341,6.712213406333311,-6.521969008170241,2.8205172173008735,-0.12963537276008485,0.07216313240951544,-0.05273027452820181,0.32376438641571037,-0.31021112175409943,-0.4016833816929283,-29.47351933126769,33.950731737467976,-0.9234221889979466,1026.7202272348004
342,6.6866936160762,-6.518741541271918,2.7091112866286977,-0.08972328095913812,0.08427473943326319,-0.01040020594533668,0.1449514609951773,-0.3115068059990213,-0.16350270237277922,-31.385119462886173,32.15883473313835,1.4157647620308444,1026.7320918918806
343,6.684700553964355,-6.489106568859255,2.6489833275859667,-0.07989835770242694,0.09016927084263554,0.00514090772396056,0.012709166010075101,-0.2950783582534764,0.008950537639990291,-32.8797912334716,30.67729897286857,2.9499448367519436,1026.7449559494305
344,6.6735205705527285,-6.485367888616857,2.630539237684852,-0.05299134508806359,0.08902465284297897,0.016869457646393745,-0.048103743556739235,-0.30878697420118567,0.06293145626236281,-33.78849001899648,29.96246267107302,3.542211469524865,1026.7543447019234
345,6.677626989043023,-6.469965547592082,2.6342007576276396,-0.05872290027813921,0.05702943621892101,0.010388691788893508,-0.11508982777348675,-0.30767988718695866,0.18009335692327172,-34.61804131483379,29.072075949259503,4.300888460591695,1026.7588266740056
346,6.639480416499449,-6.509316377749585,2.6927848883043253,-0.027360565526930135,0.0376096196896029,0.007859052497863457,-0.24255347822534581,-0.3644195901043127,0.3143831164671962,-35.194014079949916,28.624086525638933,4.998666446060153,1026.7592533387335
347,6.624908967330266,-6.464514290357602,2.687221631524113,-0.02166480587429473,0.03533038341848368,-0.008761532448999496,-0.2733158442054452,-0.3686983334944679,0.28824401178701714,-35.580119571572546,28.41382789616556,4.999190502997279,1026.7548861720577
348,6.599489463787558,-6.423693119794619,2.6786620424220127,-0.017815907471802114,0.02372241198290413,-0.02737998744240066,-0.29794350241406825,-0.33826306113806776,0.2525509366158697,-35.88272282293062,28.236112032303826,4.8082960987914385,1026.7461130727509
349,6.568117673243597,-6.449336078230566,2.7039715184591624,-0.04354753249193452,-0.003015540208973228,-0.0670442741904808,-0.297488336337468,-0.34304948212420966,0.24141200018900585,-36.048716110349076,27.933860020093427,4.491990984086126,1026.7397100807193
350,6.550808519419153,-6.458934613419205,2.769970012249009,-0.024333703481271254,-0.03743972479279688,-0.07441398708050216,-0.31342400201386933,-0.3391253205014618,0.3765480323937701,-36.13453659461604,27.752792915637613,4.600446168141872,1026.7367683279215
351,6.569382435253194,-6.499909611729859,2.8480208947839007,-0.004301477393544778,-0.042271273126991735,-0.08611470902719115,-0.29889985236963423,-0.33739679679961443,0.46249939690302083,-36.05374221823536,27.95490913175607,4.470107306970694,1026.7359610125704
352,6.509735345869819,-6.547891629152203,2.9102760731035255,-0.029407529622490276,-0.027800723255554383,-0.08140841028807015,-0.2527052568981452,-0.36367280405187125,0.36251916127096445,-35.92327574150181,28.286087004324312,3.9392088584531795,1026.740215429199
353,6.54931887663628,-6.5569465253103205,2.9713125072522573,-0.04047072804469322,-0.01405196999056748,-0.07566027582206035,-0.1842582834863355,-0.3304818971576019,0.39789324717409147,-36.16918204076279,28.12870487579574,3.8337378333826724,1026.7514619163485
354,6.570256140131245,-6.590275041320615,2.95038390478526,-0.028275780669457396,-0.0115937085151332,-0.029266508258270214,-0.13460092996990325,-0.3366533605210533,0.3820358127022783,-36.132867621808934,28.160844512410975,3.9432524546274723,1026.7620609776077
355,6.542008707885666,-6.559265728808951,2.9398216189409285,-0.02610192210515601,-0.010051322132179732,-0.0020102483825229812,-0.18263257592112614,-0.30215617254970184,0.42307309076610417,-36.21441739793894,27.998100590888217,4.3631852737466765,1026.7706520862728
356,6.548793381342136,-6.515758179778598,2.9600086642141235,0.00739988460599493,-0.013806467131016137,0.03523263193783402,-0.23575970874862182,-0.2813282945162309,0.5776895096466274,-36.12841649450163,27.91498885664697,5.3274598597344545,1026.77777770321
357,6.546491537081432,-6.482766307979622,2.9293463122300736,-0.0004851807688425469,0.018059577042955063,0.046916120069045664,-0.28231696464082817,-0.27229447412452384,0.5607489402062388,-35.93495147337429,28.159487525945774,5.783717082123359,1026.7849979783082
358,6.561556258982656,-6.489459209810207,2.924346953472725,0.011982445115429114,0.029988592414561234,0.04938328336527583,-0.24791564762990373,-0.30805393112351087,0.5244989292841389,-35.627308351206544,28.468058621271236,5.817000126375951,1026.7903913827822
359,6.563549387838968,-6.494547907913023,2.821548114466543,-0.005865707085225715,0.019810191285141318,0.059665213361934026,-0.26953869856723367,-0.31163668758819174,0.4709188650586943,-35.51740684488045,28.538093515949342,6.294597020575063,1026.7945751886245
360,6.594968769303073,-6.500426064974594,2.749994870502779,-0.008064769772313145,0.019350077858164033,0.05052137590837438,-0.2699990321278689,-0.31478208128763757,0.5018460507974143,-35.10973097728294,28.66866163438391,6.801341253423461,1026.7980615035806
361,6.601108787859565,-6.484566896976908,2.782530605429465,0.010146178053851736,0.04521064316063959,0.04961059086604649,-0.26413590895267425,-0.3023096185217157,0.5358044042830432,-34.491580663415895,28.8748802280302,6.547164720524503,1026.800997425246
362,6.5956691467879365,-6.483123330047107,2.7773656705486016,-0.02769804365472995,0.05484139632906736,0.026010702583977426,-0.2076292454488871,-0.30345404304661144,0.3733858853813208,-34.297785173563454,29.02495193715025,5.76132137590853,1026.8031401894357
363,6.59784049350975,-6.477748927388155,2.8202356195148575,-0.02193056257226673,0.036498875010023205,0.02021921202802943,-0.22138250738256465,-0.30153595975083736,0.4147793847040081,-34.23390279620779,28.976067074973265,5.675280829551321,1026.8040240893836
364,6.5513671284836885,-6.487693101969401,2.8350894385700967,-0.008169371636912618,0.02720185158145064,0.01929584209111892,-0.26973439403973054,-0.3202112010219831,0.40601937191680887,-34.191594535861185,29.072639122385155,5.9244133803157695,1026.801309535619
365,6.541135293651189,-6.495104861869076,2.869610429497374,-0.013895843992021909,0.030643403546480704,0.009907418832894721,-0.2672965282986958,-0.3230450914567205,0.3665726645199756,-34.2162622865595,29.098363518615972,5.976747643045313,1026.7981947599517
366,6.527518922585488,-6.495945864767605,2.904697266347126,-0.03353265752570147,0.006572476063401653,0.0073923963733231275,-0.24104119175575,-0.322805165264141,0.3292918939833649,-34.09191423479922,29.355702488491428,5.897661618888316,1026.795880126379
367,6.4857707703290535,-6.524401324909109,2.958252596424705,0.0024805588027947342,-0.01664186145332196,0.006115587385834891,-0.30699445800932457,-0.3330965658326309,0.45254622661324423,-34.26190624158445,29.698562865544524,6.691544460618037,1026.7927068373722
368,6.45918406250874,-6.533293156902004,2.919506234192524,0.0028519694559653473,-0.0006726977586464615,-0.011323006413665373,-0.29615708930315376,-0.3289995143211793,0.3905143528397276,-34.32188833661558,29.896014063819017,6.284780688968826,1026.7893191224102
369,6.460363541861304,-6.489978525630167,2.9091040560586405,-0.01668587088706897,-0.012826044113388514,-0.03540124206608791,-0.26543828576985423,-0.2755728314444493,0.35103538276754576,-34.07269464875294,29.52759232670336,6.288164464990047,1026.7866610223716
370,6.436335202148279,-6.512533897804205,2.9343150386080663,0.011421695518313159,-0.016590635587175134,-0.041993039169191254,-0.31563839013454265,-0.29809716149272153,0.38578787984817337,-33.971057209940106,29.70374171952315,6.4983020468333805,1026.783195722598
371,6.458488240682225,-6.496808715754743,2.9762506377344593,0.006054393404203887,-0.01665932991215573,-0.04496933271203679,-0.25068677623367824,-0.28808286188709537,0.34234787524435273,-33.86411637730175,30.09040141914309,5.937228706342058,1026.7772040029167
372,6.442265397499724,-6.5182631596349925,2.9998885676020475,-0.005747352601769484,-0.01298816336172973,-0.06379178947764771,-0.22692988480731685,-0.2931556004051824,0.3129309155175032,-33.73841190838334,30.185239457624704,5.56718283494573,1026.7709759558984
373,6.413124387685591,-6.541472876988397,3.03835340703485,-0.016681592427208732,-0.019323531280397023,-0.08575131283200232,-0.18692958693770814,-0.2995017599156875,0.25585269074406414,-33.765850378942325,30.34483932017683,4.966250744104718,1026.764575426841
374,6.3984218445969825,-6.58723216065276,3.04877093213977,-0.02507792727744501,-0.026128324603422855,-0.08449833521439265,-0.1757272906834729,-0.30301207566334787,0.2802582838374459,-33.90776647668756,30.335616154901874,4.980663556033825,1026.7562558509826
375,6.412261354245866,-6.6813342384283025,3.043439520437968,-0.01389132896779842,-0.0276107146592947,-0.063424382421229,-0.11155058911931046,-0.3275751697407156,0.32467011412215285,-33.72185449990134,30.71763736398764,5.105059826143939,1026.7451959660827
376,6.4532998087799776,-6.747918647476978,3.009343932473141,-0.024782529696514073,-0.005789521467118138,-0.04459009225251498,-0.043246136353148876,-0.32565448988226947,0.2825924815101759,-33.580935618545524,30.96159204184694,5.117333522769837,1026.7343413688088
377,6.425977235840137,-6.66174753661971,3.0537636076414927,-0.016340850232426218,0.008560567029318457,0.0006550684246183908,-0.07916831613155009,-0.2500048133436595,0.3265065270091586,-33.84885288170316,30.726641031177824,5.034208362754818,1026.726419208416
378,6.4591338118245,-6.609713810923321,3.0533649707849833,-0.016715072774301058,0.0406950204271527,0.036944355780617597,-0.08979281428101979,-0.2640320180519099,0.32111455768997843,-34.12879358929182,30.439005712728264,4.953478421340937,1026.7224510976712
379,6.473687215124991,-6.5504907293235615,2.9894572090546427,-0.020765273409200757,0.060384835631729555,0.05228190948434604,-0.1347413964793241,-0.2590097802930507,0.2930966730488587,-34.36345123464439,30.01612990681214,4.9977470019204295,1026.7229146593443
380,6.504685499610028,-6.4953035573967,2.957512607857015,-0.0022792362067806694,0.06889276346604371,0.06839673407422447,-0.18105449724678446,-0.25799002303441537,0.34823498321377244,-34.52753683560851,29.71217593269856,5.341521028805282,1026.7285912736984
381,6.492380759602538,-6.503522569251939,2.9158502992415785,0.0008091862873702304,0.0986432972279743,0.056874315215881946,-0.1924044492519082,-0.30377383195164936,0.17315903349201128,-34.73475000518175,29.695820850936606,4.744068739503122,1026.7370008924763
382,6.486769198959665,-6.4569155008092345,2.84167704795415,-0.0294729615137222,0.08817338125680262,-0.016010120185853308,-0.15612693421953283,-0.3051217461186685,-0.05398372178052552,-35.2774712498559,29.080262819050482,3.6696740981933056,1026.743138600502
383,6.473844920061908,-6.436597233889182,2.9318402325648627,-0.03643094321079794,0.057019380940311636,-0.08802741498905016,-0.09985714322351427,-0.2995943963178327,-0.13162357857539975,-35.97064315059759,28.120876284621087,2.2878115258671032,1026.7474531031326
384,6.443935273046711,-6.470754240976348,3.0426816117020747,-0.06510872842867567,0.01015390608439675,-0.1375138103147213,-0.05148352307141875,-0.313850532967963,-0.09639143263404165,-36.56399446767991,27.035589615301557,0.9251028563559069,1026.7503753550145
385,6.513898426193278,-6.545069276656214,3.143374511074833,-0.04849791022866407,-0.060313360325040484,-0.13030314793100772,-0.05507070420398649,-0.3099933275083912,0.3226628531873101,-37.32945921384409,25.91873262121325,1.8545964531164243,1026.7511889696152
386,6.518332472548847,-6.594100674665978,3.192637708127901,0.03306676684640781,-0.0775121056150521,-0.05849469369154213,-0.1354028779411453,-0.3030088575425714,0.7401155252738512,-36.95953507875517,26.14677049079774,4.119059341468596,1026.748588183972
387,6.49541080493186,-6.575345401141067,3.1766838953721184,0.08095402976458149,-0.05000149371611978,0.017346484099449874,-0.18682532423751833,-0.27315452342310487,0.8686246646862322,-35.845633950081904,27.122658376224535,5.567692361154257,1026.745267914427
388,6.470300111043494,-6.491263417254493,3.1025119914440644,0.07314289405839275,0.014914405805021916,0.06601306354878175,-0.23299401376683054,-0.23327042030058343,0.7417190466758758,-34.85850045479182,28.387246823547056,5.874157320694937,1026.7419686548076
389,6.520274602491674,-6.439766613842536,3.048336237347587,0.045143350547756714,0.05622563128017456,0.07734011424216776,-0.19654970664127308,-0.24094604439451833,0.5603407861476671,-34.27735425181043,29.300221336433204,5.608496886565593,1026.7386847291518
390,6.538143510187126,-6.382051003980876,2.941665275354733,0.01429665878383601,0.07066885426763843,0.05164862890668448,-0.21161281610756139,-0.23180025085804679,0.371639327000225,-34.11645173547823,29.699999123626387,5.447285811319062,1026.734000023453
391,6.567089813011845,-6.336466017321409,2.9090346389908035,-0.005663721755528425,0.05670141905836881,-0.01920858168521422,-0.14245960241011718,-0.21383395541791841,0.13571127897825735,-34.18779958469745,29.57213520362536,4.9120939911709725,1026.7280252423354
392,6.52002104859365,-6.338834065243175,2.9505836301173427,-0.022596303551995968,0.018753089779518735,-0.0727690529054391,-0.09629062050601811,-0.17880248542543753,0.062006290089387045,-34.44805531673866,29.41997813405262,4.200511462830656,1026.7234584562616
393,6.47069732257255,-6.410122487469716,2.995295680358998,-0.03682565977807094,0.0015386088176356158,-0.09561889208434066,-0.04593838791590237,-0.18684813824576083,-0.003393323399773218,-34.726503292985456,29.359965702293227,3.336984641065249,1026.7182083873345
394,6.476646591168973,-6.508731181646817,3.0697831118785235,-0.04530868527002126,0.015788551004383318,-0.11188328594423241,0.06898299914730666,-0.2361474175150004,-0.03157045718219753,-35.186460568592366,28.99441395411334,2.2576086191367803,1026.7129750867134
395,6.486061988607477,-6.609398669745706,3.1296552340403765,-0.06951477210874146,0.04825422619862005,-0.10577357822590627,0.160004552772744,-0.275438864567138,-0.08037739774460018,-35.80251461890562,28.203212034282494,1.1586344100893298,1026.7069913733505
396,6.16365321518905,-6.7070739629756,3.1939733575979465,-0.0658263954719242,0.14836210563044108,0.05633060964585074,0.06609784262495369,-0.2278570346093004,-0.100082981946049,-35.95238660492182,27.69357270851139,-0.3292429283553193,1026.7017172829194
397,5.8171316991180335,-6.97564803889037,3.3749757194976047,-0.0636645156253066,0.07406023073625097,-0.03540624071822254,0.13094892398464936,-0.1942721176108551,-0.1273343270894065,-35.350033194007025,28.246721093279987,-2.8421745007883708,1026.69786802078
398,5.938093714937784,-6.89126867180881,3.26478714644301,-0.03747437055495778,0.08335814454762663,0.021394658105116635,0.01896967306865542,-0.24184078270603954,-0.01214851098564175,-36.7433054606457,26.45258979205092,-2.5267614555641624,1026.6986039206874
399,6.113227847709548,-6.717885512989538,3.12868415916468,-0.05949052942432767,0.07944430057792164,0.03541947364170562,-0.10220420120640097,-0.22897801933497663,0.07229760506298333,-37.93054956338096,24.48818082697528,-1.7638585552482802,1026.7061901987
400,6.1778866014599085,-6.663401160747245,3.0660073889262907,-0.021721026768246984,0.06287559798319417,0.014860114308761344,-0.2289069556304795,-0.27210951070451384,0.11434428024642905,-38.73663188628243,23.286290782861148,-1.2682252853195664,1026.7167972883667
401,6.194711904800134,-6.5711270102257116,3.0281846963001193,-0.029775040707137667,-0.003081047072065607,-0.06686229453793649,-0.25272655653976,-0.24601672864491636,0.15356391196865016,-39.00246803196894,22.307963705850064,-1.6222050782599633,1026.7313405298164
402,6.186860395464507,-6.619699260728026,3.060433224452712,-0.02631214273793526,-0.05227684882083672,-0.09834576356113225,-0.20682435958625356,-0.19116998095393978,0.2742077393751737,-38.93358823587427,22.492783106392007,-1.583866485758597,1026.747519772056
403,6.212522919389523,-6.742650215426522,3.1285275618960324,-0.016372148938531027,-0.03466124881018325,-0.06567013964221693,-0.0927191631291547,-0.17873762260016357,0.35564601570731924,-38.5159361801094,22.761522846094014,-1.5738570525544737,1026.7616160444595
404,6.159535813956983,-6.808286595814413,3.1646923623199106,0.00605931984442256,-0.036347982944738774,-0.034934577824421956,-0.06211063022320337,-0.15033995099344902,0.41676212283084035,-38.2042335840418,23.38213443348042,-1.1277482173956872,1026.7721513142428
405,6.053024009476019,-6.81147406387528,3.1919152148704293,-0.0154155411122773,0.03895114603202707,0.016239749190602705,-0.10627421221357769,-0.14117087229231454,0.31992971157893024,-38.331761974223696,23.517696297641052,-1.4512478538685039,1026.7816851771433
406,6.103726490489375,-6.796567423839096,3.1445872147462066,0.02107839226885275,0.01163833527348818,0.026468450965226063,-0.1376314274955083,-0.08955076468023421,0.2926804436961764,-38.565255725425004,23.904187848252466,-0.891767789686375,1026.7904881694508
407,6.211120092556081,-6.757524332807786,3.1240671038438004,0.006839313551392329,-0.0029836431745667424,0.00797775128530815,-0.14831218513590724,-0.0809416271910369,0.3054886341093266,-38.91731161668933,23.934858066961887,-0.3956542270428352,1026.8016328778808
408,6.329566673065377,-6.738322728076974,3.0485861793093254,0.014758380154973303,0.01124629003753127,-0.006296661571788606,-0.15020184473738335,-0.14700198007630916,0.19299236166575512,-39.37589018607973,23.767130469193738,0.1470042365474445,1026.8127141783707
409,6.40188674703119,-6.63413774551326,2.967293742844779,-0.0026513212396395633,-0.010853868212131522,0.0016822131575496627,-0.22968418856457273,-0.11407162957608566,0.15694612905490193,-39.83659065539514,23.271295595589454,0.375764904585987,1026.8249446422067
410,6.530249258593657,-6.594296757700931,2.880771124193045,0.006234421389163053,-0.052993047401094395,-0.0020624427762797578,-0.26370774877176956,-0.12853943900198417,0.3207089443947401,-40.02381759515137,22.88296284679638,1.576880495229576,1026.8381375473173
411,6.686293883987824,-6.594249937419285,2.8277940500316516,0.09643002109338346,-0.14181182470077805,0.006730623788275864,-0.26104040425930447,-0.12102691677304647,0.7793192889820435,-39.09932746948646,23.41687674955982,5.0217726762372,1026.8485494900178
412,6.813860286179101,-6.529287174070424,2.832687889808851,0.1699503055192964,-0.19601032179059313,0.018217762884152697,-0.25592072451158865,-0.07287240215988733,1.1747706379988603,-36.5962594078057,25.56453562342923,8.334691285803903,1026.8561485817202
413,6.863828142289224,-6.537197374283177,2.895468226600548,0.23620771183005418,-0.11502469231972415,0.09005909418864017,-0.21383924941917457,-0.12714871706311537,1.4526442867124503,-33.21553993784713,28.49274949539563,9.332473838988456,1026.8614475386607
414,6.782327092889616,-6.455186250074773,2.683614520557036,0.17323314729306027,-0.11553178322655003,0.022428055358482843,-0.2489732136387534,-0.11153627899501038,0.8775230541061445,-30.124516799689975,31.915766997620178,6.470554802433476,1026.8639752448128
415,6.731515061029176,-6.462632512793386,2.8381466759878675,0.12358391919403577,-0.1197885758390468,-0.06754059284195972,-0.12028701114056817,-0.077550213601075,0.7330436379983866,-27.610175075305428,34.300447492308386,4.837726265497796,1026.8623161493779
416,6.793696863765056,-6.5225625385484305,2.9082537907137778,0.08348703880130498,-0.09696492329930699,-0.06473624605089214,0.06688291329425797,-0.14435468958900563,0.4738768597660675,-26.053144762626523,36.28490717481638,3.1634561712607048,1026.8574570793958
417,6.732094156910003,-6.480405532607776,2.9434296694461257,0.04350579517605416,-0.06228996040762757,-0.0068197048567055565,0.04714881654221314,-0.11118587778830714,0.3468986312255112,-25.346146332661096,37.338947406611254,2.562002986852127,1026.8512931738164
418,6.665482582568654,-6.434398343673492,2.9517112244328363,0.04872894408652824,0.015862310851335347,0.04547624598759132,-0.06498781409095017,-0.1749402797679574,0.23828681668086626,-25.038354552077344,37.92445381106416,2.0601547927085453,1026.8431460259774
419,6.770211112000578,-6.322009674851283,2.8576883563766384,-0.011601964399710396,0.07044633065882336,0.05891146361415751,-0.03999707109619863,-0.2417601337683033,-0.023915545554930195,-25.373506698153673,37.984448660593486,1.338395514617333,1026.8328303741653
420,6.786183076323555,-6.1887363479018624,2.7602654221334904,-0.017776662046667863,0.013612961992339474,-0.007079042220629016,-0.1388754966350192,-0.2376831547882305,-0.10355205624509822,-25.916501507926032,37.69322222499882,1.693256269538476,1026.8205403266918
421,6.737011770980335,-6.227113276999503,2.8698490147437683,0.002341966757619676,-0.0730881123006368,-0.08456908026581933,-0.1711226468723283,-0.2561205099926422,0.04531392215558275,-25.813673617830265,37.924324293899886,2.147076430174342,1026.8067887469372
422,6.64696429547399,-6.364039357941851,3.0035708791451343,0.026139470802427792,-0.06142075133289653,-0.024845537066773116,-0.07844404618459816,-0.20726181532293805,0.07874418622804669,-24.20583682768581,38.9709593278381,1.5694926150423472,1026.7942376278563
423,6.664635280784562,-6.277319773888737,3.01544202552052,-0.03650876760013114,0.06036192033304156,0.04556460983054543,-0.034064732324815536,-0.22231004636745108,-0.11427095204303445,-24.393010684423473,38.989735256846686,0.5356953127392581,1026.782562657541
424,6.7469530283372166,-6.080802830318268,2.9304993491295757,-0.05340790914569031,0.046519771690886905,0.037827260773581096,-0.144267033140893,-0.21328347577367232,-0.23742539365139073,-25.58344136759259,38.053152424988426,0.6597429688235402,1026.7697751759256
425,6.780371992076147,-6.037618220985357,2.8830248191766614,-0.024228896039014805,-0.03557067683817931,-0.06701810429102753,-0.17124661622789714,-0.19641101644003736,-0.07159126693655443,-25.860344898102436,37.71893158476435,1.8976747628100386,1026.7576186391764
426,6.742753743458336,-6.178184951162256,2.993179391439285,0.006896603760936339,-0.04864239699739664,-0.06565731910121307,-0.0811784738335973,-0.19486997538323741,-0.06444602162652141,-24.887862988397057,38.24013658512907,1.2537820323921243,1026.7473036321735
427,6.77892980247467,-6.146608117895695,3.0094754362445326,-0.03306756477486909,-0.006475447406902944,0.008392397072687408,0.039962704226354076,-0.11733269953427174,-0.14340596145398798,-24.541465850844308,38.39186023445842,0.8112193438858493,1026.7388270400843
428,6.825358028340814,-6.065005563350308,2.9832905141057293,-0.05444447264236693,0.06846006697738574,0.04819351581834745,0.08761351774826989,-0.1229910817101189,-0.26622673172808475,-25.207035725936162,38.17634777224969,1.0017341944381422,1026.7316306080834
429,6.923857560574585,-6.0119721039315035,2.860025020425713,-0.054694650174941795,-0.00941612529375889,-0.027549145140363912,0.08373947760641685,-0.08152618991596411,-0.4173780819463351,-26.1865357092354,37.68654555456372,1.3484828946868188,1026.724152249705
430,7.054759751759057,-5.920953651562985,2.795795901520596,-0.018432987683696167,-0.0346655784670691,-0.025178089093643604,0.04980566026610569,-0.002835649759899375,-0.17761820288956534,-27.168903577555938,37.20718860264554,2.8659735962978203,1026.718694216297
431,7.178501105768746,-5.85232692588451,2.7035651520244937,-0.013250781153511576,-0.00852301539171943,-0.011695040575103515,0.04671069525061155,0.0366297907029764,-0.15937887067968826,-27.503436474243745,37.29141581898159,3.231820532529103,1026.7158856138844
432,7.280871451531886,-5.8064172187299965,2.6576049223398934,0.005558567281255417,-0.012145864430635644,-0.012776605185318608,0.031699789327990134,0.0587006266436017,-0.137040894270647,-27.786684673282434,37.34696649575633,3.2522525164956786,1026.7155464019938
433,7.351554533781183,-5.76430592317134,2.593301943091113,-0.02970981784242681,0.009291919981392501,-0.02135248302053675,0.06969798196645886,0.027340148200269768,-0.2558164640448203,-28.355703158162715,37.01241096700454,2.8931597556958475,1026.7166798688577
434,7.460685702358977,-5.7219789151443425,2.533673669881301,-0.015185124889633611,-0.0041723351098809335,-0.025065120628863232,0.039532677719186546,-0.01657583375408931,-0.1938297134790389,-29.138238302066156,36.211614340354274,3.6052370184916307,1026.7245355066154
435,7.515480930050573,-5.602816506765371,2.4616009058110957,-0.01400496063598371,0.005774822569544655,-0.024100097476869795,-0.010185245876325924,-0.026388171922269388,-0.2100556630502838,-30.151300495017868,35.565522842858734,4.203835169878785,1026.736946886436
436,7.49686118887101,-5.641795816258807,2.368711792503786,-0.030590467802000622,0.08417860185570837,0.07713736849610302,-0.09631270532243634,-0.14343938820417618,-0.2758385364633459,-30.82158216718149,35.14216578317418,4.199795641145755,1026.7491587883612
437,7.276123192841782,-5.789238817629906,2.5277479976227264,-0.02892880433766476,0.04170532504164101,0.01892549618203731,-0.09140203321756307,-0.16938059886046558,-0.2722958040054361,-30.279986118409337,35.50973940425328,3.6654076539919203,1026.7636573189593
438,7.076753222231187,-5.934122288324183,2.618045944727874,-0.031646063685879654,0.008634389610394907,-0.020008050923843584,-0.06915905072178585,-0.1722421285968681,-0.22294000892210916,-29.859872177081904,35.65142358925437,3.7768101683610866,1026.776207339613
439,6.942016518419194,-6.086140941181735,2.7195586037491486,-0.039883207209461355,-0.014977274713196737,-0.05071236087868171,-0.05846683861337196,-0.18929365460319614,-0.12171474300161195,-29.334985802311127,35.550738299773506,4.1784404746924135,1026.7873352523875
440,6.8387932411447085,-6.1679140187478625,2.817069943391802,-0.021398381677026953,-0.03292145573173276,-0.062425908415945114,-0.08277902609648641,-0.18471608747768434,0.04341153246978388,-29.039487236508208,35.61601361453988,4.690844561679692,1026.7954568904008
441,6.699591177513426,-6.286702345959459,2.924881198821113,-0.011944067776322571,-0.014488210213412102,-0.04961616238776272,-0.10786723382911119,-0.2347772697177012,0.03778026935700067,-28.670417669059926,36.00814072373196,4.0862505549325405,1026.8002919057335
442,6.712616674954839,-6.434562958221812,3.0262967168328063,-0.050949593776989544,0.013915551354547338,-0.0699911601437453,0.04725707477598794,-0.3459158672174383,-0.03157843378183191,-28.73278793824242,35.98281331921322,3.298989167407576,1026.8036559163504
443,6.646048200286972,-6.4263269254952196,3.069688461415493,-0.040646197199920964,-0.003949833129093017,-0.047941148428678325,0.02185883733545338,-0.27690625640644984,0.06516811152371962,-28.99335590355649,35.711317358809964,3.608698724226836,1026.8024834609894
444,6.624720297116635,-6.476318428090602,3.072858659782602,-0.03188177061496173,0.011037323152516588,-0.014467506534483351,0.026850041017513374,-0.27597342669621816,0.08379367370547164,-28.993549148777202,35.6123917979603,3.810461613444533,1026.798103293787
445,6.614590004232574,-6.466131488864366,3.0798106110897105,-0.04249676283253484,0.020370086652987736,0.011660274927501223,0.011711584151663281,-0.26144921256994613,0.10540794745038232,-29.329010987211348,35.378038028730266,3.9175779792744705,1026.7934843536643
446,6.543226404330548,-6.447259021872352,3.0956851782031936,-0.009451800493624062,0.021666891712348785,0.04206749880416942,-0.10340046072314751,-0.26727389447702565,0.21872982069565253,-29.581023994663383,35.14325915570863,4.444075192201156,1026.790113248908
447,6.521811317978293,-6.380900180627908,3.107295396001648,0.014993648461408375,0.04697498961219869,0.0717883173005991,-0.14265882744812458,-0.24644373376234802,0.22475696229355815,-29.395094190437366,35.06378650149564,4.3625574462059085,1026.7907650686032
448,6.5591820330654125,-6.373433514839428,3.0732261285367537,-0.0393919292174599,0.07106495466820659,0.053091179719345065,-0.0804530578283592,-0.26286075076648907,0.07422549719828198,-29.668561428240647,35.010915510757414,3.7746044020558376,1026.7962081574265
449,6.5736709295298015,-6.344165372145933,3.0872699192343074,-0.03377686466953821,0.06630581924485694,0.04827804049370503,-0.12784579597105467,-0.27139836904359843,0.13427550202498095,-30.06069958476257,34.7506805357471,3.965161318799858,1026.8034166930981
450,6.573043864070582,-6.337355891311211,3.0901322344087903,-0.009934228979409113,0.06204803858067556,0.047988320068784264,-0.1808370733340734,-0.29910471132510114,0.1987241869592064,-30.262006245123526,34.504901125549715,4.25972030197565,1026.8101617661514
451,6.5665226030508625,-6.308516516653031,3.0793168626540393,-0.002951826834346219,0.014170046523384203,0.024758605780320197,-0.22792444838721632,-0.2897304206133803,0.1964694136302367,-30.310103905993856,34.12763784378856,4.39109632381234,1026.8150846158198
452,6.542174412875922,-6.298635799566561,3.053972360979549,0.0018308445113774168,0.011928193363803838,-0.004014893834644106,-0.2653231807891312,-0.30914023663508783,0.17314502947833738,-30.118962669082357,34.26025334107586,4.296355624978711,1026.8146789449784
453,6.5101847575795295,-6.290231459131678,3.0578547721758342,-0.01350272849419765,-0.034485969440877076,-0.04850245146057394,-0.2579685749778497,-0.2781370983729957,0.16581649935367093,-29.961350917024372,34.40891523912742,4.14569683277395,1026.8107346791494
454,6.503253187712705,-6.2934689046075745,3.1008087796168784,-0.003811147757366082,-0.07505708385264845,-0.0747894761054737,-0.24007237566980705,-0.24445859837240014,0.23810312113240104,-29.66220784701469,34.734310312354026,4.244782989714154,1026.805650696078
455,6.515689963006714,-6.452434798038662,3.1044375511085693,-0.01166002094778652,-0.04483740391732323,-0.08869132329432279,-0.14071359240316117,-0.3203439539713886,0.16766589914406185,-29.04961390583698,35.27903119310182,3.7023498367909333,1026.8017340534245
456,6.523434968863146,-6.48893889676945,3.2024857313348196,-0.022639400679624257,-0.04451592842498815,-0.05829769335925765,-0.07516392578265364,-0.2936812261745599,0.239428033353132,-29.020032357310935,35.32185601565354,3.6282285956690705,1026.798669386924
457,6.460721503234844,-6.474775769622571,3.2347085142215595,0.006267285234424123,0.011012257288083548,0.0187058378339032,-0.09241516322297917,-0.2533551969134889,0.2374819885080187,-28.604994353746786,35.667243365062546,3.4703929311925625,1026.7954844108124
458,6.484057254194796,-6.392342839163368,3.177768005747627,-0.010610576010856836,0.05013815437029636,0.0695099937121538,-0.11293781863197801,-0.23056950910427387,0.16447781174339238,-28.928017971480326,35.62552373218601,3.242115523774644,1026.7931598757818
459,6.554768280470195,-6.314749925888936,3.115906197757557,-0.008141547681929016,0.04456636908277884,0.07945778628028578,-0.1725244308141088,-0.22799566783285477,0.21235633283558014,-29.28494659030297,35.51602708007348,3.6632091091428296,1026.791360398813
460,6.5155208271597065,-6.3007936321534554,3.001799931653337,-0.003108623454353348,0.012940293082333139,0.025025811808405782,-0.23660873549180025,-0.23280646295605437,0.07146838929369992,-29.08624539349498,35.79763245439215,3.418716173274968,1026.7900470617253
461,6.455347383095787,-6.2989972628693,3.020350478519878,-0.02111674947796887,-0.04973162081729831,-0.07014203229006388,-0.2134925526474957,-0.145858871608524,0.1485359350170774,-28.661933774313074,35.97011216396656,3.905425943098191,1026.7890885308102
462,6.43502046434214,-6.450516584872781,3.08632317280594,-0.01144828491477873,-0.06634048067681794,-0.0822944096059779,-0.12249215182048984,-0.1676302623229452,0.27258817701134463,-27.81254637038013,36.71324799019641,3.992964455576855,1026.7862041996905
463,6.459722117137734,-6.545055263415495,3.139755881444812,-0.019399362925709714,-0.030417631548655663,-0.040134903945095037,-0.0040506310247468424,-0.16342614400184016,0.2470015696370105,-27.219591194258893,37.283877626693396,3.5155948921968356,1026.7821204644442
464,6.4230921961918686,-6.511575167935275,3.1747930686301595,-0.03357209177982443,0.013348155927803688,0.012533030342901805,-0.01709783002293635,-0.1517357243148012,0.21378563959511626,-27.353345031493642,37.20083075085169,3.1417070822889612,1026.7760275059254
465,6.387727972365939,-6.44074834814218,3.1698270951014664,0.0017670556462306142,0.04660794202006496,0.05864811598817902,-0.09467937895159073,-0.14286332649137148,0.2431671123734595,-27.54707615540503,36.85013497182156,3.1578007818344296,1026.7700142322826
466,6.440881890539893,-6.414104768275316,3.139842732238483,-0.039535461732412056,0.08599823214398039,0.05509051781312922,-0.08054629005567032,-0.1943029312318304,0.12304593485037528,-28.149652780748394,36.5506801278202,2.7471301266149633,1026.7624100826345
467,6.464611247544437,-6.361334914229577,3.112939865410179,-0.02330781310474524,0.05310310572547691,0.04271078718458596,-0.19431811756583633,-0.23871604315116707,0.1647833943912131,-28.862344520031268,35.863264159909185,3.2549901261723697,1026.7550669443153
468,6.465462502132231,-6.294929914927603,3.066536195193308,0.03163326502200328,-0.005006029408600038,-0.019522189262855635,-0.2693325125045499,-0.21547073019732832,0.2247839057566417,-29.001484492937763,35.70679325915077,3.7698194017293725,1026.7452970301129
469,6.434112444580726,-6.352747306160959,3.0856240775269406,-0.028748278788399508,-0.027708085299246486,-0.10406630959750586,-0.21399338273822255,-0.22989669854600714,0.11919530458979903,-28.443785265657574,35.9537564060954,3.2994106735740343,1026.7317357204543
470,6.445664325902781,-6.50328021136546,3.146477489203707,-0.03830562211099869,-0.038514572261033435,-0.07523511623552258,-0.044525175332391476,-0.2007628770098167,0.1766095351877976,-27.693566662863862,36.594890870300354,3.2581202839473504,1026.715984338042
471,6.400468741374595,-6.512641149110997,3.148651609685868,-0.015993986481164287,-0.021143083177604695,0.017905744872740215,-0.06622797039798306,-0.13595702159944334,0.28668417163073867,-27.425838636022245,36.79406707275993,3.816084546636673,1026.704488289434
