Time (s),Accelerometer_X (m/s^2)_kalman,Accelerometer_Y (m/s^2)_kalman,Accelerometer_Z (m/s^2)_kalman,Gyroscope_X (rad/s)_kalman,Gyroscope_Y (rad/s)_kalman,Gyroscope_Z (rad/s)_kalman,Linear Accelerometer_X (m/s^2)_kalman,Linear Accelerometer_Y (m/s^2)_kalman,Linear Accelerometer_Z (m/s^2)_kalman,Magnetometer_X (µT)_kalman,Magnetometer_Y (µT)_kalman,Magnetometer_Z (µT)_kalman,Barometer_X (hPa)_kalman
11,5.561771237179999,-4.63136303102,-6.6509872009,0.0005218217382628,-0.004383584800946,-0.002654605069066,0.06011475634436,0.0243378481688599,0.0038201614022528,-45.863337936,-9.6740042114,18.8279867552,1023.750992
12,5.579123443941108,-4.629792024867162,-6.6356120906252425,0.0038535894087782584,0.012603365129736682,-0.00233805613373033,0.020060319275838748,-0.0007349247661361386,-0.012780549078563384,-45.226800150634816,-10.912220810406133,18.950892531071215,1023.7525029060337
13,5.656134139241727,-4.638059370814379,-6.565780180563723,0.0011630597006178378,0.006138676701531876,-0.002160357235384498,0.019442199977547318,-0.003572167103525432,-0.008682399625964031,-44.85467365026304,-12.111804060853682,18.464024161057754,1023.7568876763996
14,5.646076293982887,-4.629098521287099,-6.580617172576904,-0.00010460464090141712,0.0015736091007129832,-0.000759667798326061,0.015997836287949367,-0.0064161591302699505,-0.010517194040216053,-44.645449322119504,-13.110756019318833,18.301094660641724,1023.76369344074
15,5.635456319759949,-4.624002448362351,-6.593766513684337,0.00045179230442859584,0.0016318788788391753,-0.0006428860422478939,0.014044750202808652,-0.006850760277197725,-0.012644861579803542,-44.67818585346095,-13.346898006146835,18.335424984942097,1023.7706172134443
16,5.644192825411583,-4.628383232010497,-6.582320382964379,0.0015973352279360403,0.0033419209980296285,-0.00037796745424411676,0.014101144747297133,-0.007586256442713104,-0.01098089316866389,-45.374583502554124,-12.45707863084217,18.799225432841407,1023.7783818754316
17,5.643176540616139,-4.62998175995807,-6.582071675525518,0.0002865727576589379,-0.0008448651665228608,0.0001943729507158961,0.014001541254685444,-0.008234914260913526,-0.010243446258361537,-45.99033698286016,-11.35801222619579,19.460867308578525,1023.7868190037776
18,5.630818896520352,-4.628487361491488,-6.593324996997939,4.171437533443149e-05,-0.001702813574855501,0.00018274841654514516,0.01393343749596028,-0.00801384870108229,-0.010536988467378957,-46.566965088960075,-10.685698134742756,20.28825507015784,1023.7927024374003
19,5.621717607131368,-4.627475258241732,-6.6022308018414275,0.0006109240497932557,1.5537331972076277e-05,-0.00014015952731937046,0.014301978412833847,-0.008311559042261055,-0.010455899670926075,-47.00731540037509,-10.239594912814722,20.882544978526976,1023.7943827201417
20,5.631360620142169,-4.633035061547048,-6.589398207132255,0.0009418124367513857,0.00038566761977636567,-0.00019823139991058305,0.014907814948116115,-0.00904668183850009,-0.008354558228576897,-47.328595571150366,-9.81620285726849,21.203705519379216,1023.7928297975163
21,5.625879922266266,-4.633532076951854,-6.5938907259548944,-0.00011081052978177295,-0.001861041124559269,-5.800848963984301e-05,0.014432866196483634,-0.00930221601951091,-0.009648701904084256,-48.109814170806644,-7.983431288635524,21.405434801771886,1023.7879779576308
22,5.613065906976483,-4.631598245419256,-6.60652780451699,-0.0003584874187589341,-0.0017696175641685838,9.12703625466146e-05,0.012592752255063325,-0.00926840913830652,-0.011139983305585969,-49.45861185016559,-3.990926993784525,21.369910280927222,1023.7812063008357
23,5.614225692428549,-4.634576160793206,-6.603400119231313,0.0011816602091423794,0.002021879410819309,-0.0002275676065782435,0.011778064523880033,-0.00950491604472251,-0.011671871260796952,-50.80999856517994,-0.6400967256866728,21.739305547203017,1023.7746846094191
24,5.620163502057888,-4.638774675010435,-6.595107335216544,-0.00021597099028448463,-0.0013324955897214717,-7.049846029317364e-05,0.01305504384895507,-0.010123185253583364,-0.009503589914456809,-52.134188228416185,2.272051955930944,22.266210209487962,1023.7683416190372
25,5.609982532849929,-4.637428638934629,-6.6049944442260236,-0.00043496838685986927,-0.0019728293925356443,-0.00015007968493351936,0.012300308919505091,-0.010167309474472482,-0.010368388290270019,-53.467291360534105,4.821028613162595,23.13045218266015,1023.763611528794
26,5.600551257435548,-4.635402192080516,-6.614354492085116,0.0003518590008216649,-0.00041499254564064864,-0.00021122991689963652,0.011109654569264289,-0.009621249789778538,-0.011810245725522112,-54.58929221181028,6.769729278820391,23.93526509915541,1023.7599749482679
27,5.61029735636417,-4.641026091642975,-6.601574966337776,0.0014128728778931004,0.0014345892223745526,-0.00045763527521998744,0.010640277133728632,-0.009244546562019361,-0.012001023330737198,-55.580264853402156,8.553900907617091,24.48423146352301,1023.7573212253966
28,5.609012118429311,-4.642612433844891,-6.601701140444762,0.00011322033775481763,-0.0021195438541502373,-0.00041826193873861,0.011914840191815726,-0.008560464593616916,-0.011593747090336374,-56.61217558678364,10.306837802240452,25.093282555141037,1023.7556112557259
29,5.597798212769506,-4.639168847749318,-6.613823455659739,-0.0001431199395056473,-0.002491770278019604,-0.00038596278113918746,0.012719057961224581,-0.007799768091668366,-0.011245821860725334,-57.36430003821873,11.326630724198447,25.717245803758523,1023.7549817049937
30,5.59664732059089,-4.639830162382375,-6.61441199909792,0.0013810734507389314,0.0011191636966122014,-0.0003260358936109023,0.014231945812519726,-0.007122647724594951,-0.010664225810620018,-57.956756254093534,12.210541505512106,26.205572738938635,1023.7546046409815
31,5.60605476938565,-4.644917272380498,-6.602419283773982,0.0005241619991034238,-0.0012482397687750405,-0.00016224826278097098,0.015814656610237503,-0.0070486993910410375,-0.008939293225559244,-58.09348493774047,12.69602144372207,26.2763310340731,1023.7545355774322
32,5.595763825415718,-4.643558928796891,-6.612654500570301,-0.0001809865682026987,-0.002709597292987961,-0.00016371812168312298,0.016735730570015265,-0.006259230704451339,-0.00888854486293945,-57.10900660618759,12.076623283756678,25.428943373918283,1023.7577211170013
33,5.5845845871457565,-4.64038623438187,-6.624120461208671,0.0007708227284480164,-0.0008436408038807303,-0.0002114493628577844,0.016978909105437767,-0.005259851627623965,-0.009286274711162832,-55.45527068805542,9.778591492720869,23.99583846388286,1023.7667035295817
34,5.595041190538841,-4.6456579216381275,-6.6110481894518855,0.0015008400262304955,0.00017672132294144498,-0.0002761683891437016,0.018907438918697294,-0.004752958360278079,-0.0076827482442368,-53.187646280531766,6.822162684609305,22.113451258649825,1023.7830908118957
35,5.592623688016887,-4.645684714879005,-6.61319769398406,0.0002622419423307127,-0.0032784842617690577,-0.00034403402684676456,0.023836135036398472,-0.004425136658482636,-0.0043293019026010605,-50.858822467099465,3.0588221023127464,20.44376631799673,1023.7950509560386
36,5.70212493041534,-4.602397768170733,-6.549068725123237,0.00040398210558676426,-0.0008093073112174247,1.825626384566127e-05,0.14175036647258235,0.0373496546928237,0.06656733589078731,-48.828582015129236,-0.33537050990393036,19.234775348212644,1023.8032234662719
37,5.97926235124908,-4.519819141741116,-6.36265019631693,0.0030037865369858872,0.007659637426413857,-0.0008372572350245755,0.3811886197132487,0.12655133462385754,0.2155892982294632,-46.47329792689726,-3.9975063556339054,20.366042913147922,1023.8024895959007
38,6.213896185784905,-4.45871094142205,-6.191669587585029,0.0022011916802036876,0.0028127631381202204,-0.0007918351165627918,0.5387020130850322,0.19004387822215568,0.31775983483952386,-43.66044974321443,-7.540746372167591,23.43350998638959,1023.7898755700035
39,6.368921718703468,-4.415558803868683,-6.084714046356156,0.0014158988266280872,-0.0003064296036613648,-0.0002858464509201184,0.6285051875549262,0.225516797348583,0.3721990849071751,-40.71367389428662,-12.174513893942251,28.213877365518858,1023.7719094866841
40,6.476044190244846,-4.384360930803013,-6.0142486940147295,0.00174749212384175,0.00016909193551576773,-0.00012468191638822257,0.6604371989175478,0.23755901772789917,0.3892844632187865,-36.66397990888354,-17.844191988720123,32.70398710372629,1023.7500372375325
41,6.568562604321999,-4.368340683023886,-5.937885099513348,0.002072243126259081,0.0010818956963820462,-0.00022105310519799983,0.6645111991935673,0.23769021630634773,0.393956710620797,-32.45543052501354,-23.487195344476156,38.14209965608854,1023.723397339075
42,6.619779025815692,-4.3597234121123725,-5.896760720389349,0.0009977064783509766,-0.0028156148927027877,1.9990647422849005e-05,0.654492134479396,0.23096254490384907,0.3879987180312988,-27.24598344239562,-31.453448432195724,44.27895593238882,1023.6935457962957
43,6.644274230816495,-4.351920101675847,-5.88365646148047,0.0006489190585559356,-0.0035968614790498166,3.027397184277236e-05,0.6487587110573506,0.2237569673159858,0.38340036115543286,-23.008419501950463,-38.594596481505505,50.476247507468784,1023.6696151438244
44,6.665577924670331,-4.345513171723642,-5.869238870229258,0.0015799502951925788,-0.0008705136043876118,-0.00019367267991124478,0.6418748754829254,0.21858849957216298,0.3808143292625127,-18.44414539832581,-44.97728404801708,56.1232953020518,1023.6479242626702
45,6.672873433212211,-4.352509804746475,-5.856352164127133,0.000983057966204199,-0.0028894583883668713,-0.00015918880538006689,0.6179169802405078,0.20802361935379643,0.3676678474342472,-13.628787079334995,-50.71596176697973,60.802527982599315,1023.6284037844403
46,6.643845606129042,-4.363004919471552,-5.877512583822922,0.0003619345653157525,-0.005525201198962595,-0.002048613704416182,0.58186255210405,0.18653844900231173,0.349280895858877,-9.413543457520017,-55.561643399034416,62.13091326667962,1023.6086332707654
47,6.599674107286156,-4.392663713462899,-5.900009813952838,0.0013632977518068321,-0.008328404651988967,-0.005766776382167415,0.5406704027663146,0.13273156055553267,0.3472219631194016,-7.469193565058334,-58.80121122326329,61.840597068551936,1023.5789100708639
48,6.560382383973807,-4.445885843751106,-5.891821940599318,0.0047549300086995785,-0.010392724019156288,-0.011632655160674054,0.4958313487256782,0.04322044360485884,0.3762699956163002,-6.411581114217269,-59.66285182693663,62.701346231157046,1023.5321949097106
49,6.5152855750872005,-4.518860485961949,-5.881121948657317,0.007745758041112143,-0.017212538820047498,-0.017811933024861074,0.4602575968584957,-0.08115327675842718,0.4315798488287954,-4.769294356575488,-61.05197530492776,61.49522757951895,1023.4784781535541
50,6.455470084200565,-4.590297248823332,-5.8817126852416735,0.012440036168794653,-0.021797390606804978,-0.02330675066832037,0.42604769465298825,-0.2106831786988768,0.4949771337227872,-1.1334608266324606,-63.117465829104106,57.583070664785645,1023.4259170597985
51,6.407596395859599,-4.660739008645839,-5.880401324379664,0.016686628947915602,-0.023344523264817795,-0.027746939600397973,0.40563786048815703,-0.3371509600079381,0.5543180984275208,2.2509456397974716,-63.32233353176454,52.32105234782584,1023.3713346825956
52,6.367000945797596,-4.725279904493464,-5.895346980577462,0.02065760148940775,-0.024274274529536972,-0.03080677256236074,0.39231450877813023,-0.45386339284633725,0.5980076796782023,-4.460471490446394,-59.980660306938205,61.062565115033856,1023.3290039915056
53,6.213417950664969,-4.829818241438536,-5.953888470844101,0.02549203703726623,-0.027284140992312852,-0.03434612159132758,0.26219906743631516,-0.5919984175647331,0.5849986004008111,-11.81740953308147,-47.916355004445265,57.29538313269395,1023.2930389077823
54,6.049492021371676,-4.908035765817957,-6.048250795428955,0.02501261671415872,-0.03097602729703371,-0.037030718393436295,0.13663958038948623,-0.7094214643295833,0.5522175554593359,-18.0979784366434,-36.74679431871224,45.38941160552812,1023.2667900148375
55,5.918311121946136,-4.952812605721397,-6.144837673969791,0.025487064956743955,-0.031058248118812727,-0.03802295830247372,0.051672924570026604,-0.7984462439638101,0.5242504373498988,-24.03819874898791,-28.23958657409112,36.9959180563805,1023.2496214484864
56,5.829986940743448,-4.977730777687857,-6.219433173700666,0.028480534426036878,-0.027310167510055498,-0.04001404927562495,-0.002018672723408374,-0.8623207196552921,0.5029254685274488,-27.280545008730744,-22.048498972739633,30.781893064633707,1023.239080102094
57,5.781670390901859,-4.98806168556526,-6.260567072068445,0.02726246201921661,-0.028771833494400503,-0.040576285386334336,-0.03881420723077071,-0.9032495105527245,0.4930370503127725,-30.096657909272952,-17.962340310451985,26.980561827830996,1023.24303191958
58,5.72932397693188,-4.946729605427601,-6.341799729710814,0.02608461288488143,-0.029312961731254417,-0.039337298928763156,-0.05966822095543166,-0.9023463498868738,0.46279554879172313,-32.69506094964081,-15.003066795511927,24.10738857490266,1023.263600554653
59,5.670364994931169,-4.907989695100944,-6.41129538671155,0.026374516627977566,-0.029234331825312057,-0.03848891792818909,-0.08043735488026783,-0.8953655229753863,0.44397485153974964,-35.36802019561231,-12.8946407051078,23.538114422498666,1023.3129303887854
60,5.545831089280799,-4.905568480820727,-6.519432132007422,0.0289313567845613,-0.02540399569960416,-0.03754724745745332,-0.15960733138828875,-0.9020925115461604,0.37722627449497226,-38.835373884718976,-11.249158927327866,25.413646111403395,1023.3823236889588
61,5.484372541860907,-4.909644856922314,-6.5771753650959175,0.027026312309206955,-0.026356530583638113,-0.03656104898832716,-0.19845288158258878,-0.9052086208713337,0.3374684317749879,-40.15521502561961,-12.378565985103252,23.671960969877443,1023.4561164019489
62,5.41803036509742,-4.870866358494171,-6.655809745870546,0.025986239900139277,-0.026719193085983833,-0.03523548883621799,-0.22742649600211495,-0.8704925103758281,0.2932779521672287,-41.8708323001401,-11.687640399683069,23.237442082528545,1023.5099735551338
63,5.367020329471737,-4.8648000535296,-6.697810107521637,0.027062025382037832,-0.024358180557489,-0.035483583629045745,-0.23944249175077176,-0.8627545100026881,0.2830974282277043,-42.57003689783504,-10.935005453308275,22.571728697504206,1023.5446638941712
64,5.350678764615678,-4.839835918246726,-6.7259177993883466,0.02692361094614378,-0.022355754189997964,-0.03474930658825296,-0.24206131894593078,-0.8234470690277355,0.25807055684407687,-42.8111953503866,-10.422371934307801,20.40412998824579,1023.555492594202
65,5.255637812922107,-4.832416537545843,-6.804033007583723,0.025375092613302334,-0.027865799967339847,-0.03343044006836707,-0.29298414308954757,-0.8043504109669901,0.20821309359993997,-43.279322305125994,-10.844211538564846,19.14429257688204,1023.5479785789538
66,5.111074198588473,-4.818687220745003,-6.9181403992280766,0.02448695839432499,-0.026457877708816996,-0.0333265853383807,-0.3732780435067899,-0.7849559779069596,0.13940920608637974,-43.14386632582722,-11.71749360666535,18.925497298805528,1023.5256346127305
67,5.053474634882541,-4.800406825059393,-6.978385914640162,0.026006011185427367,-0.021595933350414688,-0.032641595971983156,-0.3981588057643058,-0.7467441817077897,0.094873399327955,-41.89853511230548,-12.982077409721409,17.249824988284804,1023.5093270077804
68,5.029399913744687,-4.770760659629797,-7.016592315398575,0.024127227474873583,-0.02240058666597708,-0.030187411844084935,-0.3851947407497907,-0.6921330009239622,0.07135486037903067,-41.75887391394506,-13.061991538619283,15.899209353224645,1023.517582709357
69,4.997242543415858,-4.722928934654332,-7.069329138458315,0.02321468566972757,-0.020859487809088195,-0.026949497026153648,-0.364643656889507,-0.6060753457828338,0.037233420022605115,-40.96589747313285,-13.049446120406666,12.931909899710634,1023.5386544320896
70,4.999073269251817,-4.690968562492496,-7.082675499145304,0.02456243064280328,-0.015268617220992107,-0.024107153083651446,-0.31425995585046423,-0.512595925579217,0.023932382845375924,-41.284563683327995,-12.972117671502767,10.28160386028489,1023.568543858327
71,5.035035191656173,-4.684010709741013,-7.053915581685856,0.02357828363838491,-0.014766301030638163,-0.020371716594822193,-0.25299480939639835,-0.42370784768287423,0.021283338180191656,-40.78681873072758,-11.726195222452525,10.68798840888102,1023.6115262902221
72,5.0051115372357575,-4.688707560849111,-7.069776085492422,0.020953628618116373,-0.014999698140316663,-0.017017951496969125,-0.23506535376348514,-0.3498163579639013,-0.007089144302477004,-39.71278297106129,-11.444204959575488,8.628540857892878,1023.6525325478262
73,4.97875244353788,-4.691393062216392,-7.086118764801166,0.019312344206673594,-0.01200527967773689,-0.014290546035450637,-0.21376173085531955,-0.2767264052517999,-0.035036832875628914,-39.535668153739614,-11.217673904485089,7.270517514402966,1023.6920965068999
74,4.983765084786909,-4.710654624955836,-7.069061068062293,0.018709157939777194,-0.008046662625260659,-0.01164348746586566,-0.18448862187164167,-0.21246945193020644,-0.053328973098808644,-37.58094817236898,-11.383268923781284,5.827357607610704,1023.7327411018777
75,4.978199779090179,-4.727385927225131,-7.061281301200735,0.015163060013918563,-0.009611893925992775,-0.00876830778289736,-0.1500566208430171,-0.15460827215694423,-0.06413135536877229,-35.635955423344,-14.067314575476004,4.927105034225334,1023.7754314291109
76,4.961962846102811,-4.74482806685813,-7.059747757605172,0.013159423569000038,-0.008719322809216527,-0.0062679374648096885,-0.1139548300589084,-0.10853737876248906,-0.06700313480831985,-34.3173970759371,-16.347586113446905,4.121435124253047,1023.8186463113035
77,4.960582165984822,-4.773622226654327,-7.040108911222559,0.013917925730718036,-0.0027671313454751024,-0.00446713900039074,-0.08034213917776256,-0.07366191589166135,-0.06338812134618782,-34.25591720532074,-16.436309140163793,2.572312212558548,1023.8589462397964
78,4.969607484853917,-4.809518332823619,-7.004358139127331,0.010152614335901002,-0.004976648240099304,-0.002557154699950592,-0.04536302702302696,-0.04618833893503155,-0.055683492312784674,-34.73035706015917,-15.058644718918817,3.7086993485053816,1023.8914918938581
79,4.995492209733074,-4.818270543846249,-6.975028086791217,0.00691458993879499,-0.0054892676456822324,-0.0016917633294067994,0.01310147747456892,-0.014359707937287816,-0.02958987019796311,-35.700051670791694,-12.183982982476403,5.2291445747727785,1023.9174093587189
80,5.022515557454606,-4.824422933740937,-6.950035569825624,0.00683225767146763,-0.0018375192803705824,-0.0012426279784973572,0.06255769876281567,0.010209874841353956,-0.008448203298307772,-36.6888720641335,-10.094107198573871,7.67308173446151,1023.9384684788366
81,5.025719141537178,-4.850499356128076,-6.930230891547722,0.00453772881634934,-0.0034754470856107715,-0.0010300493380986334,0.0676299166763691,0.01425766800870993,-0.007012096593084324,-36.85325673691524,-8.687500068906314,9.104255931245085,1023.9542919391176
82,5.006701012109813,-4.862504711333983,-6.9382978975669625,0.0029092215843229997,-0.005294027503032218,-0.0007005016779492388,0.07003370224348494,0.01547646498324664,-0.008169132050246209,-37.59361648027082,-7.895059851755947,9.91332053320908,1023.9661291201447
83,5.0410034106318236,-4.850856202706784,-6.917877336230233,0.0026215372570821903,-0.002825441591602253,-0.000769854461450757,0.11888874466952536,0.031640377361581914,0.020057203107807772,-38.89898917335552,-6.9673198885085466,11.919994201127054,1023.9747684131863
84,5.087381068005221,-4.850907530974991,-6.88103355806948,0.002596092565982031,-0.0019493585972618064,-0.0005466022933131281,0.14333743982741085,0.03896319581678522,0.036971306233355955,-38.90006710432534,-5.30213977137953,13.80103333529871,1023.9837531568559
85,5.0871067999549595,-4.854166390239844,-6.879703443287782,0.0007397002517774407,-0.004542566712570911,-0.0003951653505986536,0.1356730890793411,0.033760062242891874,0.03496045569270782,-39.08737472646923,-4.420092675022357,14.685677524557054,1023.9925161715248
86,5.058041027839194,-4.85826999058829,-6.898200973232237,0.00038030078923832305,-0.005047945798187278,-0.0003280406145472664,0.11459392840246888,0.023380109076447237,0.026854911707307978,-39.36692135628226,-3.4692878568088004,14.987023380568177,1024.0024157294142
87,5.024677448289335,-4.876223307266644,-6.912989133179342,0.00285738046845797,-0.0012069253159003252,-0.0005788164871162302,0.08107228668704186,0.006911509519137653,0.010481590703550148,-39.54056911728232,-2.5959035718076033,15.354081297052089,1024.013701037953
88,5.0119435540691075,-4.890458906957627,-6.913088137277856,0.0004201420401229489,-0.003982199826377093,-0.0008667228603998478,0.07166741728637031,-0.001244934468033138,0.008767747239494438,-39.00833224494354,-1.9914255154229328,15.584499415927427,1024.0236999143356
89,5.023412974057017,-4.878839157003912,-6.911564658547256,-0.00022602693090768052,-0.004997633235887506,-6.495221637537829e-05,0.0979725221655488,0.0046386568873552645,0.024337802319994044,-37.8832448318522,-1.8458695293486629,16.11728528443973,1024.0327598961997
90,5.0147686032290295,-4.877935268992147,-6.919971368361851,0.0009876462202176128,-0.0029582668540391894,-0.00017622261112991658,0.09164724968664528,0.0011420231345651158,0.021221936878864693,-36.75473641451927,-2.347664842284119,15.850537649421756,1024.043700440354
91,4.989631816017339,-4.900044536669716,-6.924689958923882,0.0012717404682182497,-0.0031405714030696436,-0.0002997864329628153,0.058509615841153634,-0.012799499510593143,0.005120141066141021,-35.94767461501199,-2.9521601296931537,15.108423715433714,1024.055333518029
92,4.930637883279271,-4.9187042630055355,-6.959110325647405,7.886613207835165e-05,-0.0058648799795760435,-0.00034529493347545785,0.017810938173846685,-0.030725366214355516,-0.016065611837164172,-35.57087152796947,-3.362121330936769,14.866614545108593,1024.0638238475071
93,4.995458462654579,-4.884673293231984,-6.9290368741363695,-0.0013109158630836913,-0.0024113385976904885,-0.0010857793393005883,0.10282599143678545,-0.0031414895882673106,0.03296050455628241,-35.54554194490091,-3.080553172821356,14.732731601525725,1024.0614257120112
94,5.114178229026568,-4.840590095193268,-6.864942982398943,0.0009275588855218086,0.00015641141235894166,3.224784854135459e-05,0.2071834240019576,0.03376670515865336,0.09190315709200658,-35.92800327997743,-2.9930277787921566,15.084464949579647,1024.0498025889535
95,5.204805961436408,-4.8120347588884105,-6.810797215100989,-0.0003236353218021551,-0.0027838193118221643,3.916963879882568e-05,0.22786216716258437,0.046891319197710224,0.10625074631117917,-37.07858295489031,-1.8058149014628324,16.25639302094337,1024.0277160788987
96,5.261033514612191,-4.786433305223958,-6.785062607055556,-0.00048820275637082835,-0.0034632017324957025,-2.6570445323494726e-06,0.22286688606785668,0.048832590618053576,0.10334758820000162,-38.410492354216906,0.17576951614687264,17.52552861137503,1023.995457784949
97,5.299017674990557,-4.766766376173689,-6.76840908997317,0.00019463964743238215,-0.0023723791331203463,-0.00010182277968092971,0.21177288338984768,0.047977800473413004,0.09954280765921594,-39.01970493022119,1.4337388285321597,18.012253912110957,1023.9578572313219
98,5.343905059781241,-4.760074227102778,-6.735985619123845,0.0010014094277415312,-0.0007799864628808416,-0.0002919027504529864,0.1991523995812315,0.04488024553033158,0.09487875681059676,-39.198857061108235,1.9973097750954518,18.07195642159246,1023.9272406354936
99,5.368744878375768,-4.751708127175512,-6.722324740451645,-0.00018991283762749707,-0.003471660229937363,-0.0003134358765059008,0.18380415125505395,0.04063225573449798,0.08703052403695076,-39.288295844377004,2.2935065154502348,18.099938316177944,1023.9040915884844
100,5.3799982723506,-4.742189150520399,-6.720073378268769,-0.00017083192073087916,-0.0036186926982484623,-0.000404388545094249,0.1676191138866729,0.035573503294487746,0.07907134586832117,-39.4575670542005,2.6071240235404627,18.040963014534167,1023.8871964003237
101,5.394070343292222,-4.7377401268562735,-6.709999442445777,0.0013763651155022515,-0.0006102916809033929,-0.0006072046818294825,0.15225253520042972,0.03108572349690268,0.07289824352566893,-39.62470036607209,3.0111820141485404,17.982203906039295,1023.8749890135841
102,5.4179946948788125,-4.740266963209075,-6.6890011928168525,0.0004915071349321637,-0.002556140703007134,-0.00047664670696295145,0.14147818201252227,0.025115319333546875,0.06846079701128088,-39.66885907909258,3.3807972953493026,17.80613022478353,1023.8660795282029
103,5.42029421773111,-4.736748902830397,-6.691286273556246,-0.00021142190525939364,-0.003707479441744145,-0.0002729393143864289,0.1356914442321632,0.020767788274728048,0.06580312851094779,-39.70613020038751,3.664084619597779,17.683188494187547,1023.859680195315
104,5.418710673226623,-4.731822846153353,-6.6972600062222325,0.00016029018349261514,-0.0034789296607053476,8.30281009623482e-05,0.12753192985863795,0.01672324040275079,0.061292524245617375,-39.71954588339372,3.931485763967997,17.63783253618845,1023.8548859504136
105,5.459361186483344,-4.740017873019586,-6.6566431509395665,0.004372907573394637,0.004567518315674303,-0.0016437664008354005,0.11927875885852206,0.0130046350562108,0.059063423097819104,-39.82352869834098,3.819290671450677,16.8546206199195,1023.8512631690085
106,5.479443095648341,-4.763139794726007,-6.620478059352238,0.0017514226728912218,-0.005246273786062583,0.002083543998468147,0.11923452869457829,0.011507072888466406,0.0644971771053917,-39.51121157559423,3.5963690733533262,15.87765593690769,1023.8488665675943
107,5.430552568177983,-4.781737092662983,-6.648829967325662,0.001446393403547837,-0.008220686421255452,0.0018963013722780489,0.12781220780922511,0.008149177204328483,0.06918816796340857,-38.97474162347498,2.7965745118630756,15.043240702244892,1023.847055557167
108,5.406583778976967,-4.814599779149303,-6.641746267724058,0.0029410992366739686,0.0006511712869796734,0.0039100539109561665,0.13575214569626143,0.005794525555848043,0.07773369966173388,-37.39209866555903,1.034059171921841,14.08944828233836,1023.845919399774
109,5.3932652643132,-4.84397092651462,-6.631524591504512,0.00154977425240818,-0.003377220857899532,0.0024295442722093467,0.1421270075338148,0.0037297674407368166,0.08659143529714061,-36.52336117716207,-0.7436236184519784,12.98450260450204,1023.8468832091364
110,5.369662813247623,-4.848020787109848,-6.645650074335425,-0.0011189809348849426,-0.007174006738201853,0.0001926795323236542,0.15217687178266467,0.0027889562271158986,0.09149725899758317,-36.055731524802674,-1.759727162636796,12.911796786452616,1023.851626555405
111,5.34539302011179,-4.858029041150943,-6.658902793766378,0.0008619915314681738,-0.0014330220020248897,0.0027653489156332497,0.1625067033180583,0.002242226376952593,0.09904168050066486,-35.107332527133,-2.086691206828735,14.249563410740555,1023.8587985124716
112,5.310032911159417,-4.879799595129111,-6.671660581629736,0.00043630062713825266,-0.008734362909743177,0.0020396639228959664,0.17321531578594002,-0.000497576946751491,0.11013869319531082,-34.15471210211406,-2.182112879737246,15.674091810202462,1023.867495512953
113,5.259854383991048,-4.891757186305843,-6.703323404619427,0.00018178767169504126,-0.008379677010178579,0.0012876857828292027,0.17467035913529427,-0.0008891207395680992,0.1084852420807762,-33.96030560306452,-2.362925033611038,16.627130337520445,1023.8757805250813
114,5.226153235402919,-4.901687834636257,-6.723853098344228,0.0014539585456513281,-0.004767812597498486,0.0004850431426284609,0.15154857221405443,-0.0009782249900777387,0.0898202818661428,-32.674359425315345,-4.359133072494699,16.54399895675433,1023.8818272897176
115,5.302134955935171,-4.886450576049924,-6.673797980887905,4.7374131254121054e-05,-0.00012199081336218554,0.0016058183650791754,0.21247830641242402,0.024955385780949788,0.12070518850620218,-31.75632854383072,-6.304403581477054,16.62594836511678,1023.8753164467425
116,5.546514240748715,-4.815146317532861,-6.535177264970854,-0.0008348134255034501,0.00020437918114732335,0.0022696557193572957,0.4422332861555396,0.10352770592234557,0.24052590552650624,-32.09885712390192,-6.822740448266762,19.362838585777517,1023.858692533711
117,5.757586040622226,-4.756184311536683,-6.412228503448203,0.00018889307249187577,0.0016195452902019376,0.0015970048012904138,0.5913405064730661,0.1576518707014921,0.32019984267922413,-33.706242412457144,-5.755864406669227,25.24516077400352,1023.8324821040061
118,5.925859516241694,-4.721503037366631,-6.299354816721291,0.0010345887521690112,0.002502369686323793,0.0011155179876068335,0.6285731084071366,0.1744103752068593,0.33940194485363756,-36.22888773290707,-3.056645651386481,34.005884466677486,1023.7981414391924
119,6.056499496560596,-4.700965393023925,-6.204969027015175,0.0014153665897768117,0.0025393786465013166,0.00040177721758723607,0.6036492486635298,0.16589795122474182,0.32207243530865626,-37.078326136437965,-0.9413077984030287,43.471646911391645,1023.7566301976505
120,6.147126195165273,-4.683854673232496,-6.14378341219326,0.0005581548083132854,-4.7295096102658966e-05,-5.80186256318475e-05,0.570746864948364,0.15289256218844077,0.30010212620390003,-35.82481559001846,-1.1659381051458753,52.18088388040064,1023.7207890599374
121,6.214475429228965,-4.676575107392915,-6.090877037599939,0.0006004439126399462,-0.0004509679834385294,-0.00017558730631389986,0.5296768238914601,0.1363138996398515,0.2770673253891924,-33.85291117255334,-1.6020872469017227,60.40192271957908,1023.6890862122817
122,6.253352596067093,-4.6696737043004894,-6.064543458047925,0.0005010376637042559,-0.0002972157648984872,-0.00032936326816432077,0.49428804361917755,0.12147943768996187,0.2575878592020368,-31.21531502075922,-2.8610771524971166,67.82865686293412,1023.6549211197544
123,6.284700681139471,-4.6615669502253505,-6.043540683818256,-0.00023885458051391302,-0.0035752963080825295,-0.00046111016739544487,0.4667162896288466,0.10674852725146028,0.24399272877113448,-28.09628809502368,-5.445792866359176,73.98537522403743,1023.6214527850942
124,6.287750943952417,-4.662282799677465,-6.042958548398358,0.00043052318952510767,-0.0018516699637400947,-0.0005608146665918094,0.4273605232541633,0.08976708462129096,0.21936150483348726,-25.6900883579935,-7.3251756842340745,80.09923830178117,1023.5919145032587
125,6.259696992020245,-4.671996310624839,-6.056765092236494,-0.0005683911966166247,-0.0045265456035614,1.6103784722254358e-06,0.3730707888368875,0.0669697669762441,0.19342398701779812,-24.53221146987586,-7.278690918436401,84.38561290838123,1023.5703561717492
126,6.21282561613735,-4.683690079251953,-6.0898250056781045,-9.338298022323524e-05,-0.0033786517944733585,0.0001501662834882021,0.31726588027117164,0.04451036746918073,0.16261115479480986,-24.772044904369725,-6.6512902248120245,87.00108438629228,1023.557920024449
127,6.178261776219484,-4.705768646642411,-6.1089059400341075,0.001810137054485367,-0.0013429243598046766,0.0020320473906855424,0.26613524902341035,0.027159831826912093,0.12469065550142946,-25.73805860965106,-4.569262238811762,89.38512714566863,1023.5540581347952
128,6.130696882195624,-4.731185217155136,-6.130304422254732,0.003297268793091196,0.00032585142456297163,0.006744224316789079,0.22183149329201185,0.03884228880262353,0.07750901286093512,-25.419061049545135,-5.580017515153205,87.70646516189424,1023.5610710834834
129,6.086796317497386,-4.747516577109735,-6.167632019864846,0.0026229500443301903,0.005995270620373782,0.013349051382365576,0.19216291690515608,0.0960009813321829,-0.00478309181620136,-24.508137152281357,-7.011814364961203,84.60278770382742,1023.5749079217895
130,6.054014336694248,-4.742545480205352,-6.20830383616476,-0.00023808996360374403,0.014956101970714085,0.020372556007245007,0.1679071841361774,0.20571803730822885,-0.12285826341392193,-24.233974439808847,-8.853959285523922,83.53289784759981,1023.594961908682
131,5.988148974462048,-4.717734422133145,-6.273076313217875,-0.008816485283741522,0.014040989870558733,0.025078052050843715,0.1237489750448714,0.3342975438876869,-0.2560950936560408,-26.329813273517605,-6.636573830071157,85.29000515570452,1023.6107936276802
132,5.767435545887911,-4.7416855631334744,-6.4349244525298985,-0.01330150630291473,0.012770660257704014,0.0267685509713768,-0.03855819292593246,0.3935129313161493,-0.4313121048877376,-29.6632451448058,-5.092751933365825,77.16086850873157,1023.6223483094465
133,5.601117179543327,-4.80012796857973,-6.552588111958403,-0.015396318079527065,0.021038270304164098,0.02753941718691195,-0.1611346519997582,0.3987668586328127,-0.5596930771019899,-32.218656729489474,-6.039431591836425,66.17682125647839,1023.6159825350272
134,5.494389204155379,-4.822114867226859,-6.62119741445193,-0.019867728218815047,0.022768058145907037,0.030482078003596876,-0.24809215746408858,0.43446577690600097,-0.660115634848207,-39.69403795316207,1.2609765577199168,61.68159148941768,1023.5948064659749
135,5.396916219349577,-4.832683658849755,-6.689857374288925,-0.02309794956010411,0.022749446084615755,0.03149134165450613,-0.3091283774366055,0.46559330757512113,-0.7307246044376259,-45.49934269414788,8.362827400573217,57.79038720077742,1023.5537312493235
136,5.318763110901975,-4.859003662141778,-6.727926426486795,-0.02582257286334235,0.022593214698517963,0.030420905426183364,-0.34987925995016506,0.4634424106467161,-0.7532478107171309,-48.97086296256626,13.283263392791904,53.114699594262795,1023.4931243373959
137,5.270764168524754,-4.887574859719004,-6.744483310020728,-0.025619168717040078,0.023819081603849143,0.027475619275246672,-0.37146410354412873,0.4352433454917832,-0.7438405006863037,-51.024456523727316,17.227963073442247,49.545185568048225,1023.447015199707
138,5.23498350207178,-4.921470674814633,-6.736237584739935,-0.026908321821031388,0.017788574080893172,0.023707260219480334,-0.3851370983864851,0.37853655717410645,-0.6945970102597506,-50.926520309853096,17.62967864128834,46.856494530465596,1023.4114871724879
139,5.199455735870903,-4.949298081515317,-6.7404838060799985,-0.026180429503674926,0.013260780459203274,0.018811612952801943,-0.3859079050778244,0.30001093578384863,-0.624473993183447,-49.37361799896432,12.979882463674505,44.072414126963096,1023.3844647507967
140,5.1685463163659895,-4.970309768346512,-6.739893199192991,-0.023806715302649505,0.009004496850729743,0.013935903768945188,-0.382002517525707,0.20878236593871868,-0.534562476605777,-47.07320780692435,8.176131057255724,40.94105987321294,1023.3627434482174
141,5.157043532031112,-4.994537149134251,-6.72315634718021,-0.01824510949117696,0.008467367519504231,0.008915922489108174,-0.36794077372718437,0.11265688015038265,-0.4384385026398452,-46.58841473200856,4.4417185105795856,39.14175940032976,1023.3468902904599
142,5.157770453590873,-5.011462806788073,-6.705539024415187,-0.01594029622837594,0.0022408994535535586,0.005540830024691243,-0.3453429781860748,0.02755836046564958,-0.34570966954177895,-44.36455447450386,2.2578245235967738,35.07082872640143,1023.3353199617483
143,5.15078655504162,-5.024771070043427,-6.7030837461019495,-0.01153979175477788,-0.0004155616588584427,0.0034111845986971485,-0.3180153149437376,-0.04434702038311096,-0.26691446602949576,-43.69948392359885,0.34402887455515363,33.184443802724196,1023.3170439043491
144,5.139347703118124,-5.042207936832781,-6.685179935527799,-0.006163944586429484,-6.912843758452396e-05,0.0015870940607005833,-0.29582779145562255,-0.09894034584505504,-0.19194036827258693,-43.05529900698161,-0.02424799565716218,32.98255624580719,1023.2614933292799
145,5.144218747597077,-5.064332227816074,-6.66080692054809,-0.004032001562006598,-0.002229426007415496,0.00011389476802099838,-0.2693267382355732,-0.13679103478919444,-0.13483423692575247,-42.793840630074186,-0.6533611791069517,32.75747432923082,1023.1690301155601
146,5.13231065519625,-5.0742793449204315,-6.65727491110754,-0.002920179525604057,-0.004580604563291365,-0.0011110663030419743,-0.24505447024572016,-0.1626789458206145,-0.08937799989108697,-42.63597972045454,-1.5854663207787265,32.23289186962207,1023.0478128831675
147,5.047907792326324,-5.101626313395586,-6.706888914022959,-0.0011862373894416353,-0.007272004686886548,-0.0023396456129369542,-0.2811682929040941,-0.20338328966656694,-0.08730687733094865,-41.584568287758096,-3.1708258755864147,28.196237664125874,1022.9197696765518
148,4.980044930002287,-5.136381174326847,-6.746522980179848,0.0007852882087868865,-0.0038716103212027135,-0.002514769465368865,-0.3106098297544936,-0.23583209621606735,-0.09923409630034277,-41.58073922885372,-2.4637222379100887,22.181616112932282,1022.8141778577423
149,4.914534015230343,-5.128199127883885,-6.786844653768811,-0.000877735552890657,-0.006265117356378861,-0.0011965122580537147,-0.333684318906961,-0.22780796910133264,-0.10497438300121957,-43.01292506211068,-1.748642495123491,20.14417413570903,1022.7371123247069
150,4.855738765681536,-5.13292209936874,-6.82904311083681,-0.001292682221005998,-0.0068627943255332524,-0.0008857583933943826,-0.33594842889519083,-0.2374239831542348,-0.10135825670800819,-44.95788451857546,-5.622529350953682,22.62260585524268,1022.7186883938043
151,4.8081008682192925,-5.133497937796652,-6.871234771604439,0.0016171729178544071,-0.003933757590321879,-0.001134855639958315,-0.33897062537673694,-0.23759334924143222,-0.10614023655119122,-42.64329220479135,-12.536671263158343,17.673101098927972,1022.7439292524471
152,4.77931928422247,-5.157768522507115,-6.8690247408006675,0.00024853518226801733,-0.00455319816128634,-0.0009668856464380342,-0.32974962155087845,-0.24242328541545147,-0.08924054272388804,-41.7348183892128,-13.631319129483147,11.688117970650728,1022.7892486992571
153,4.699787549217931,-5.174250640835303,-6.909133473967967,-0.0004554138836787644,-0.007878302848389628,-0.0005829265640075131,-0.344959990786731,-0.25142103990514186,-0.08800030028894817,-39.579732290541834,-12.604386590368744,4.547611783291077,1022.8359798617217
154,4.626115485113143,-5.199493805452812,-6.9458324180448905,0.0006567284608741303,-0.007142240817726579,-0.0015524536745519252,-0.3528882558213775,-0.2729354115175094,-0.08048330873407938,-38.04690321305706,-13.357415331558435,-0.6264278842558451,1022.8837413560877
155,4.637707679627424,-5.205153099781892,-6.941597516011063,0.0029869632343315863,-0.0011301898033344452,-0.0029384424107218032,-0.31209100073931395,-0.2676111990516806,-0.06339363227480782,-37.78600685112002,-15.061087010051935,-0.17434050104582532,1022.9386750941666
156,4.672871883036149,-5.204436441544961,-6.916684823608905,0.0015402751814931218,-0.004328437022508697,-0.0024238872277234226,-0.2550478255750044,-0.2522852312948697,-0.03241574024991046,-39.56119189660524,-13.040818334764891,4.737833023722947,1023.0010076711797
157,4.683909349995644,-5.199958425757748,-6.9154416796223055,0.0010910790924912983,-0.005772149315632233,-0.002424554587436417,-0.20603548327242122,-0.2366518978186409,-0.012790607386172166,-41.44507853255689,-11.739125229683161,10.079263217560456,1023.0672357448842
158,4.683116849618354,-5.197975335926395,-6.914762456558726,0.0013523156938054263,-0.004686083129988892,-0.00186398412056473,-0.16764583738877542,-0.22174309705239104,0.007834512850444602,-41.0705961805391,-11.857682398500582,9.446344734287006,1023.1381618152014
159,4.623226649167446,-5.212310423787748,-6.938261303575682,0.0036028692284042806,-0.005448002833651488,-0.002087064403953196,-0.1993986880408622,-0.21053067055472008,-0.012597356214097924,-36.208785090852565,-14.641247193320865,3.875799954691299,1023.2166390028001
160,4.562054683444508,-5.229790063566071,-6.973228257421968,0.00040435371805847085,-0.005979566364627651,-0.0018235335245553764,-0.21446183180212344,-0.21394490920000578,-0.027080236863068995,-33.79692423436335,-20.129487573571193,0.3852391861958955,1023.3046877743044
161,4.51995961767305,-5.231324745073969,-7.007676059687204,2.4434475379402716e-05,-0.005973105078576333,-0.002000783500776237,-0.2106781928666299,-0.2128449556934528,-0.03107109302719939,-33.545945810176995,-22.234351464800596,8.291111266881627,1023.3853354079578
162,4.502372301106382,-5.236800948286535,-7.023906361723477,0.0016936797821838713,-0.0027489140430670264,-0.0028057197535761654,-0.19085253698463225,-0.2154495800567177,-0.025270453718143286,-29.218334942083874,-38.722050526504475,21.189162735398924,1023.4617152127469
163,4.522284891836907,-5.239728505087128,-6.998016383219832,0.0011887217048373473,-0.0032943150216082255,-0.0025765836107483693,-0.15857290430180007,-0.20069549398349631,-0.003504923764090541,-26.564600806194203,-49.04954117154912,27.19764634353392,1023.5317237061727
164,4.500810786157311,-5.237178245011957,-7.015701359378727,5.478940822210669e-06,-0.006041213042193011,-0.001665985772419996,-0.14386293402995673,-0.18969253712721115,-0.0036210169446708722,-27.67988274983408,-53.9181229484504,25.983476825219203,1023.5934750118367
165,4.493313590168841,-5.2255521739213515,-7.029961927686008,-0.0006766732201642985,-0.004489932460260674,-0.0013854805176455212,-0.11114303016175495,-0.1707144483580374,0.004318880543677191,-33.83089219880186,-42.57850357750545,23.21446116055181,1023.6503744995148
166,4.494347358785558,-5.216162222898888,-7.034779382750135,0.0011958118473955764,-0.0015564647867648686,-0.0013627133425757577,-0.08080383549392797,-0.1496820437506337,0.00995436000772254,-39.41636408413156,-26.839853269297514,26.656813460872137,1023.7034446612964
167,4.517335396285777,-5.217201166625286,-7.017740865808535,0.0004097638933700127,-0.0018958634978460094,-0.001136972673606919,-0.046893054772615905,-0.1289530823371965,0.017468923685574032,-43.36857240631457,-14.803381711838624,29.98294030479964,1023.7559458303896
168,4.536363117397923,-5.205836528568131,-7.013662603614256,-0.0007180908616120268,-0.004266109964091017,-0.0004934475108480857,-0.006212084335779633,-0.11010560774694195,0.03072809673358575,-46.20925563211213,-6.885907955196307,32.1052687414556,1023.8103404786903
169,4.473756947757771,-5.217516724567884,-7.0493744237070075,0.0004002722429994743,-0.005056818504908891,-0.0004417554873231539,-0.031550968316801334,-0.11544464941022521,0.01437500458711215,-48.70153066892467,-0.7714393037058151,33.98050319321496,1023.8583464328282
170,4.360446415888806,-5.262351924429305,-7.091356205892222,0.002495902302151481,-0.0066225591837947165,-0.00013543034935344577,-0.08676803724959933,-0.12929005318482034,-0.013676098808409889,-51.022458762292565,4.379883219045181,36.29979997210085,1023.9016896382172
171,4.324123986864055,-5.256983632380375,-7.123796064412264,-0.007319894323601431,0.004726838139787825,0.001579675742535379,-0.09583272183353274,-0.13424340785977515,-0.021992417201635375,-51.95138348305337,6.749573145344863,37.620807740300826,1023.9465145949413
172,4.3716887227104975,-5.222526193080503,-7.116990373337978,-0.0034509945245178603,0.0019469047702947101,-0.00011861063240976378,-0.050896789767191974,-0.11619638305284367,-0.00483467713361314,-50.63164114210883,6.537043199351577,39.31839319609019,1023.9853099468638
173,4.513509562100204,-5.157595042109073,-7.069434189069748,-0.012730558770117813,0.023485174307938228,0.003992232567105753,0.023064676793813105,-0.09788070587481128,0.035784925393357675,-48.064210498852646,7.350738848396327,39.1713125770355,1024.0210654060163
174,4.689918232471574,-5.0524491739575925,-7.020463457763311,-0.021309907409206012,0.013110834783685054,-0.003403816039091659,0.04665004345475475,-0.10218127151876778,0.04437878365381369,-44.441426501024516,6.808905760546268,40.534059553848,1024.052767317323
175,4.79982265573423,-4.899783449856885,-7.0594875301316495,-0.021246074143953138,0.02101361317406332,-0.01358954531989122,0.015477119839843883,-0.12010771012054439,0.03105368500845302,-42.27670336326907,5.169279876342905,41.680294704326386,1024.075904760362
176,4.939639916490917,-4.737538034586092,-7.074175412922246,-0.013920782569266366,0.015942929821449823,-0.008707439583654171,-0.008258688366749332,-0.1347610287357306,0.013819304980440782,-41.67549075348562,6.886757405700593,41.81433072953989,1024.0925442865032
177,5.108780964677942,-4.667874590533041,-6.983057433376032,0.007663387920902598,-0.001744380701684884,0.010712706812154901,0.09679896232046342,-0.09782638090722437,0.08033330337123232,-41.59982635340181,9.83340094226284,42.07581652181285,1024.0967737747555
178,5.15042681561817,-4.748220414201155,-6.89825269776217,0.008394880173532503,-0.01346609415264237,0.011700939928559705,0.2649168155674921,-0.04995177443849583,0.1696914588745304,-42.85712653386652,11.641501036946604,39.393213766356965,1024.0869785116768
179,5.122051291693532,-4.8173543226623705,-6.870515979293219,0.005952127707757875,-0.01263211360052219,0.008296131076674807,0.3607211582825294,-0.018154735650798913,0.21737354886000745,-43.99499095733161,13.048496312892258,37.14397286510092,1024.0615680204678
180,5.097529779866248,-4.870180212712659,-6.85032669633202,0.005088484666172874,-0.010100184776194877,0.005767967087678211,0.3457447863972042,-0.0038815933730733214,0.2028819896516999,-44.91699193605673,14.097557353006394,35.49793449014215,1024.0224315651492
181,5.07740712560911,-4.906025424769603,-6.838749985846643,0.003040384111702221,-0.008831587299634545,0.004203802426231995,0.3026746941847607,0.002232673671796223,0.17432699550702446,-45.589208437236536,14.859947620057266,34.35142149259349,1023.977750006433
182,5.069184918280304,-4.937494930617311,-6.822784476202764,0.003758480122239931,-0.0037422007741086255,0.002731273392209652,0.2600594636173859,0.0019189696854914123,0.14673059678954287,-46.022234827489115,15.330077935024446,33.417651383018224,1023.9400280928314
183,5.072874511112109,-4.961100853711475,-6.8008244250633405,0.0017977993806564257,-0.005044560503295084,0.00189886276253525,0.21738762213318613,0.001803804125681427,0.12150363906903228,-46.33626827045994,15.674436301977252,32.607721192340286,1023.9119196646883
184,5.061535696096716,-4.974078506850303,-6.800998634452776,0.0006931817784317775,-0.005561507216313763,0.0016797298918829744,0.18213481490358266,0.0003081456364258646,0.09860012148909136,-46.66287670995693,15.984401060870253,31.985250663579297,1023.8908691832457
185,5.048551375883989,-4.982252872434147,-6.804770981980491,0.0006796588701950963,-0.004553176897632516,0.001152655690359669,0.15213869923734472,-0.0018792742999868687,0.07935698433184399,-46.90995338383434,16.151481614078477,31.57417070744798,1023.875278823988
186,5.05353595763198,-4.994030823992872,-6.791828081814573,0.0015949239949726631,-0.0013420941597369592,0.0005628045227333406,0.12653140295806098,-0.0035684910868793622,0.06358567730508209,-47.05997996741042,16.265541821142605,31.265547692945088,1023.8636735009891
187,5.053613644364986,-4.9997581221732625,-6.788036823533748,-0.00012246492306204507,-0.00367474570161009,0.0005096569697941077,0.10660350206511583,-0.005824290629146649,0.05121055698657059,-47.133540597991974,16.293851217580272,31.05872049988678,1023.8549767670274
188,5.044362049800606,-5.000877475002672,-6.793164760874887,-0.0003657286017601895,-0.003856169290798857,0.00046929708516471976,0.0898971518767365,-0.008476688899764866,0.042206315329205615,-47.25390962012864,16.440154874050453,30.883157106636975,1023.8481967195171
189,5.0423662728438305,-5.0027687275854476,-6.794586548767761,0.0006668463991903759,-0.0004945659394100851,0.00039491884232861416,0.07758123461333936,-0.010108990159666001,0.03419659631989646,-47.3528705296374,16.749516715463137,30.887867757114744,1023.8432483439584
190,5.051540360568703,-5.009305870899132,-6.781417892480381,-0.000219593591204325,-0.0020643739054418643,0.0005156847555823402,0.06837735991046172,-0.011638908150306385,0.030304328641091713,-47.42372262096805,17.05091908217397,30.946242296118278,1023.8402343883363
191,5.043515283750864,-5.009053589789378,-6.788420927990321,-0.001040750934588229,-0.0034141921202091824,0.0005775386631329864,0.0632596836323852,-0.012878926191959371,0.026630313934839105,-47.526324267043805,17.238378773723507,30.928503833757677,1023.8380346715478
192,5.036034187494004,-5.007996783099684,-6.794463772295589,0.00041452386142632044,-0.001296260784909126,0.00016551627828578894,0.05937357953561718,-0.012695151240663062,0.024622592287402274,-47.68068867159264,17.259002212106587,30.7729216758234,1023.8369446799663
193,5.041245288312348,-5.01540878368765,-6.784539977022817,6.509896940726294e-05,-0.0023099393983201056,0.0002622371790362968,0.05537897736413787,-0.013611995232365079,0.02305352641683834,-47.84115642492413,17.441184235983375,30.598778366066675,1023.836602478505
194,5.0312300765375735,-5.015696917435296,-6.792428252925376,-0.0007027398271457019,-0.0031839223424652433,0.0002466380506077242,0.052226560945670644,-0.013967661114186817,0.020877058705038327,-48.15650189654913,18.087675602565234,30.515215033736613,1023.8365793859559
195,5.018846587970463,-5.013651734879256,-6.802940814618686,5.9423418480416515e-05,-0.0027735477160904763,-0.00015483147568920056,0.04947003175000531,-0.013572225475781702,0.01831485488055703,-48.71868087912756,19.285679942682183,30.455192369679942,1023.8367275974479
196,5.026894195951676,-5.019409844368483,-6.792694671897775,0.0012608777698721583,3.6044768654155783e-06,-0.00046550355252376966,0.04675064805770371,-0.013556766647907392,0.01585357679492953,-49.361901567412325,20.78921869140574,30.511154370399936,1023.8370624297463
197,5.026246445046848,-5.020158845385513,-6.791810626677723,-0.00031536401854104896,-0.002955594842470544,-8.029002336645808e-05,0.04485436659858349,-0.012912635111204104,0.013687728653989628,-49.94785309766512,22.04516185223708,30.622657567472633,1023.8384817143849
198,5.014170833298814,-5.0167707515636915,-6.803228466229456,-0.0004375330808823732,-0.003280101643687751,0.00019287200077141648,0.04155221635216751,-0.011966210657710126,0.010525424821189793,-50.5476943264015,23.195755752317243,30.734538967066968,1023.8399298288413
199,5.008688915695375,-5.016181636678204,-6.808566768134652,0.0011814624486057219,-0.0005218262077066292,-0.00024927298154760045,0.03854088642298972,-0.009779159444325823,0.007114071797564049,-51.100466990745716,24.23184798913013,30.824092001029822,1023.8448410448565
200,5.02251161854969,-5.022998668239985,-6.793016673479403,0.0010567670319388315,-0.000781287521554959,-0.0004969283915036229,0.03612701354368486,-0.008033078565680715,0.005075635789910465,-51.71336928423498,25.343637386115027,30.850686189973032,1023.8522384501317
201,5.021415716468463,-5.022461890545525,-6.794696840522703,0.00019609299291398555,-0.002293677059073326,-0.00046294366743187214,0.03393348818514234,-0.006137949492432214,0.0021863569470197044,-52.27762629162225,26.43577817090532,31.083703795611935,1023.8610999925877
202,5.012841820845318,-5.017969577842884,-6.804505136261878,-2.9711676661037776e-05,-0.0024020178710046514,-0.00034608678868130836,0.029794898424765674,-0.004308006075419781,-0.0026307920418054184,-52.664082694337644,27.15393986830202,31.304477729783894,1023.8685672473645
203,5.012388878949019,-5.017340476720655,-6.805208732877197,0.0018650290228793714,0.0011083587007181227,-0.0005668200268413151,0.025808432264278112,-0.002214935519118758,-0.007731996212849389,-53.03648194585699,27.923682491150668,31.50003819323145,1023.8750168899396
204,5.024577512294615,-5.021658834529246,-6.793103557548481,0.0009882718212861274,-0.0003064377230236515,-0.0002796658666891956,0.02357533633274625,-0.000501107303193373,-0.010649981723943814,-53.47919688965247,28.799104264424326,31.632800979916485,1023.8797241215087
205,5.146490745403308,-4.991330024678508,-6.72263750224453,0.0011202445551305265,0.0022255231518173773,0.0014072169973165115,0.13732616530150646,0.03526227745673016,0.04738215595511598,-54.47262418894163,30.860976092100756,32.16043200234568,1023.8806655830807
206,5.216520105192223,-4.979451764827998,-6.68057785296775,0.0009640299115964502,-0.0005949220342268409,0.0009847650899745485,0.20590474805470346,0.059473906004124985,0.07990079748909196,-55.02325771751393,33.98118437651671,34.17782676416689,1023.8771274598072
207,5.27643262466243,-4.971254013328823,-6.64266754123255,0.0027323291741027603,0.0038286354853278516,0.0005000249402496942,0.25786326393934006,0.08124040044734507,0.10207921863847841,-55.01599905096931,35.54931570786287,36.84780648220556,1023.8679701206298
208,5.4126554932637605,-4.952188809572823,-6.551366020200737,0.002056456223446297,0.0025383217717726224,0.0004061459465788829,0.35443133443821434,0.11761882530879533,0.15025029203330953,-57.11853139151852,38.7804857376308,40.455253307864076,1023.853949250801
209,5.517923627175656,-4.92874344590487,-6.488312288755681,0.001134572045894522,0.0009711781873304765,0.0004342296327997059,0.4120771282615471,0.14265872715956993,0.17481405438405992,-61.140105207938355,45.49070808542765,43.42937754899756,1023.8352241156882
210,5.6202232332824025,-4.903426851267424,-6.431900813519359,0.0009204239458278137,0.0010005327499563773,0.0004537514868299584,0.46130883521478483,0.16450456690100074,0.19463573697259437,-65.27041161651032,55.68072616391717,46.96320590164408,1023.8146735715535
211,5.719326692268741,-4.882554874337258,-6.371071686675626,0.002502413008208506,0.004649783183048585,6.411726233992526e-05,0.4820615432546685,0.17797089278891648,0.19754389832830288,-67.59046380541365,71.28770629881102,48.28435159643839,1023.7914715912005
212,5.817091214470202,-4.870111377736058,-6.300355942047482,0.001540305892151423,0.003241839647266539,-0.0003010902743112485,0.490748415521581,0.18597486219018028,0.19623064094225945,-70.09116090591137,87.0898540551405,49.56973290453636,1023.7675712517322
213,5.917625317401545,-4.8444507775489685,-6.240249444706129,0.001347602227061298,0.0006274572098165102,-0.0005708726895811123,0.515899499854782,0.1991515071950554,0.20237270931549653,-73.46400312383906,106.75568968728763,53.32190759317291,1023.7443358584108
214,5.982120646952096,-4.827103146897498,-6.205277745306142,0.0015452371615833698,0.0012393682537203267,-0.0006044899961828013,0.5211395123278064,0.20402883606914798,0.1984335901717346,-77.45919049626241,123.15032224143644,59.20613373583623,1023.7237707953457
215,6.045252241147505,-4.819785740508303,-6.1550260214824055,0.0034065372722771625,0.00449109470158702,-0.0008979847629382277,0.513972114407437,0.20884189787690982,0.18932044940655082,-81.93562093387544,139.96617553965098,65.11985613856994,1023.7081017903457
216,6.074808164761299,-4.82462214064358,-6.129103741735368,0.002331690613061185,-0.000608589276949816,-0.0002272692485755667,0.4951236078602524,0.20521225687135275,0.17308713492023672,-85.75196325526896,158.33117799108138,67.41134980259397,1023.6966658643804
217,6.056443099618242,-4.831530259523208,-6.1402964665244895,0.0018010770563964473,-0.0013914983184112372,-0.00031020172036768767,0.4499640315827055,0.1966599556628753,0.14105267196081586,-86.13687841817459,162.65332335885017,69.75077385651444,1023.6883194248531
218,6.028642901636863,-4.842489339653036,-6.150306998151616,0.0031636992945213017,0.0017185433326555861,-0.0006758922226907458,0.3943115586521311,0.18746692470728207,0.10535036445470097,-82.17024060844196,157.92638467197017,66.35887726328147,1023.6810633194599
219,5.99829923671525,-4.864989962923906,-6.156085340749255,0.0019124881435677887,-0.0009491517761376911,-0.00039017206547725853,0.33672438762897583,0.17279184559318878,0.07181674155461151,-72.58176712770157,152.875346434852,53.0358214480923,1023.6746029876614
220,5.954932963264485,-4.87657454950136,-6.187000679020121,0.001087701135842503,-0.001283544013251228,0.00011161107983365549,0.28713001132032323,0.1619688212812637,0.03289494701571814,-63.81592293368945,140.50258039667636,48.88420478947596,1023.6609428122977
221,5.909143147935583,-4.875373382950925,-6.234308068593419,0.0007882871979089628,-0.00028401000980832333,0.0005606302495012969,0.23895632595732902,0.16272628154614466,-0.015523172340745989,-66.64716706105929,153.73930929650473,47.05715886924671,1023.6371426410532
222,5.871689507340283,-4.89154270866518,-6.245246807295614,0.0016584568543803677,0.0016189258248342367,0.0003261762966144449,0.18774862445863907,0.15536575636562644,-0.044739135355613587,-60.330142252579876,155.48442058798705,35.24281845139596,1023.5909579126682
223,5.833385434412973,-4.910259726138561,-6.25928980815775,0.0006214025471049558,-0.0009239681580377385,9.238116293109109e-05,0.14486715117676943,0.1416586065966093,-0.06758354288482964,-52.73509084619454,152.64451863825772,21.503838753702553,1023.510792322263
224,5.707393596194471,-4.939007349703758,-6.3343424826314525,-7.443070326397505e-05,-0.006044341728019766,0.00017721588287389746,0.03392829898402713,0.11357674177358251,-0.12863842597714387,-46.28457766689005,140.21962349247372,14.69608138205044,1023.4163996547737
225,5.461798439436786,-5.007031689277331,-6.482296858941759,0.003534635648190011,-0.004496552034664202,-0.0014402165923718493,-0.1735557904931942,0.04756218379518544,-0.24482107105262396,-39.82655462726948,97.7055876247927,14.411450994715299,1023.3158900205054
226,5.336336659090431,-5.054312320899787,-6.532887315746838,0.002771047012405794,-0.0019891933596568553,-0.0008255887897562417,-0.29029314241007814,0.015199404269047027,-0.2982553753090018,-34.20798233475819,56.01853630271434,11.075947503438792,1023.216645969285
227,5.2229108872122545,-5.07138720647867,-6.582765592618005,0.0008161495179657566,-0.004717394552249456,-0.0013464540205465137,-0.37626026671036333,0.001992668515803646,-0.32615022750189254,-28.653641618339904,23.246377241885213,10.215170865908348,1023.1253745118706
228,5.1476931835123905,-5.082839839783668,-6.6563731338839816,0.0004271269088903762,-0.0037708027499758585,-0.0007294438742635999,-0.42074946278813763,-0.009885630759727718,-0.37271985938419716,-23.94118415044019,0.19903547946513456,9.041559377055428,1023.0584928808373
229,5.105178534927495,-5.083847410251681,-6.6865772393643965,0.001920759619361493,0.0021587032199163417,-0.00032305106462158964,-0.4525963264573445,-0.005030319441840157,-0.3967563991672052,-21.502088809640952,-15.49200906839883,9.182149783638968,1023.0050009024544
230,5.081097621196712,-5.080878849576739,-6.726382640323105,-0.0002570207726576574,-0.0009738313330229413,0.0012203814516487848,-0.46565972651786364,0.005301667749870689,-0.4304116237768664,-20.017768061257513,-25.906061381795745,10.938373795585383,1022.9609722201772
231,5.033872342033403,-5.0826653000458055,-6.737801839845158,-9.979407231386589e-05,-0.0019825924253485997,0.0017594292560241774,-0.4831082847985636,0.006521686283096628,-0.41845305630937946,-20.300057578583477,-32.94043645721102,14.562769695824837,1022.9193775595342
232,4.997854821182062,-5.0906311063212435,-6.740747934343938,0.001866832216216496,0.0016005283948649501,0.0007516494346827653,-0.4961440707719107,0.0061802218446246554,-0.40654261203949715,-23.126094994387795,-35.60242852465898,18.710124975086934,1022.884196855994
233,4.999444110403548,-5.111623401575686,-6.748657493594078,0.0008284206951305619,-0.00032372628431759864,0.0006502602302618745,-0.48762444087283274,-0.005035548297571672,-0.41858965549151034,-26.487845681291642,-32.753782471415,21.996748549387963,1022.8540890657099
234,4.979989686461983,-5.122249490757178,-6.752869277820822,-7.693638625232613e-05,-0.0016698730950731296,0.00045063526065350053,-0.4822547233710432,-0.01318361458016238,-0.4034302051886829,-31.51210031942733,-23.2576431485107,24.99947963522106,1022.8275290452221
235,5.000737862889898,-5.110920743668173,-6.750595524353802,0.0015807622124582384,0.0019642648707816263,-0.0003667153684332893,-0.4428442668772239,0.0023156532686659567,-0.38818423206308467,-36.7563848708113,-13.542852929549205,28.061873854640442,1022.8035583424819
236,5.057739664599277,-5.101792738128439,-6.710033000460111,0.0008395195696117423,0.0006112154757499234,-9.59755462668835e-05,-0.38725272992772114,0.021790870807945825,-0.35762862428381953,-45.18115852453632,2.775756614276407,38.18793817214462,1022.7734906740457
237,5.088161291871541,-5.096848632585565,-6.6888930439038115,0.0007524195376978805,-0.0009503757065340965,0.00021912474272641277,-0.341864682394576,0.03105609763831381,-0.329294593770429,-51.15283585338603,15.33603107478035,45.73997052367153,1022.7515459730139
238,5.115390937241753,-5.092274516473895,-6.667777598241396,0.0026152264348305895,0.002421757565302601,-0.0002728297164763071,-0.3078022196308016,0.04574192973666492,-0.30950104121110156,-56.58064704710469,25.875531568087723,51.42369488230095,1022.7315311871916
239,5.103800093628779,-5.10150062849115,-6.67590312475533,0.00023024984225864398,-0.0023132746288869084,0.000501361007658302,-0.3079770047709799,0.04456146656032786,-0.3143858510970338,-57.607627176135594,30.000546516211042,52.40854442321941,1022.7094620756728
240,5.0493675317031,-5.108158223073785,-6.707729224122676,0.00010228252873342895,-0.00196991904468787,-0.00010133834310712883,-0.3337415152906874,0.0381526214139673,-0.3230720221442228,-56.12219340877192,28.13513713866818,48.25308362421133,1022.6814006593461
241,5.024348860430548,-5.117703337583025,-6.7240470310107225,0.00202492069474976,0.001620956375354231,-0.0007395956103143377,-0.34519507015741324,0.03463050483713995,-0.33426132405120784,-55.4145871662269,27.144832016370433,43.734820457251196,1022.6589415848581
242,5.003449671305414,-5.126386586801954,-6.730270792648903,0.0002903309291314982,-0.0011685070266628382,-0.00040686849829704215,-0.35014479013318933,0.032950832773359445,-0.3324899635777325,-54.37088928951355,24.931715548177504,41.263860287866585,1022.6417873178699
243,4.975920349916975,-5.126118079693312,-6.747568459816867,0.0005919552347992791,-0.0017170172012028824,-7.789583893807848e-05,-0.35129999113417987,0.03460884387290177,-0.3269110944962418,-53.897936712290196,25.745259000511094,39.61345880498624,1022.6083467557775
244,4.9670258983581315,-5.130693953306521,-6.75537834718765,0.0023698706263628844,0.001964178701003366,-0.0004427257671247783,-0.3432287227264137,0.03389850035334643,-0.32609470234251786,-53.79844922055579,26.97223420768763,38.19859530281642,1022.5733461934143
245,4.971507956799885,-5.134008553829214,-6.744337267919791,0.001251936410463291,1.0286034943952655e-05,-0.0005087211426992754,-0.3348281849012653,0.04173001923581919,-0.3202596630553729,-53.76912635942995,27.660272063714622,36.154123195445536,1022.5470799333068
246,5.013595262046605,-5.116266258208362,-6.7306344820599175,0.0004293659718833969,-0.0007541566179642126,-0.0004586451644629162,-0.2766338172182661,0.059018042427396826,-0.2933274743124909,-57.962891775300655,34.791207486902515,41.885237100974365,1022.5174392222265
247,4.981646813766177,-5.1202054302076405,-6.7458580302303375,0.0014149982826986039,-0.0004960841938344326,-0.0002511838476572946,-0.28494285368484823,0.05588657134281465,-0.28916938608356013,-57.37909009892895,36.1192039108561,41.72761594556426,1022.4848407628851
248,4.974527818380286,-5.131995039585036,-6.741197219970666,0.0019504814402578586,0.0015996066149256292,-0.0005901875788819489,-0.28832809360050227,0.05332144544399891,-0.289494047060655,-55.23580623409406,33.42050639978473,37.12661055380009,1022.4610284479602
249,5.0415178992831295,-5.114486942012569,-6.713064755748568,0.0007501609484964343,-0.000672605399732275,-0.00035111281575274893,-0.21460049033281714,0.07317168471889965,-0.25731311930007406,-60.5265777296467,41.35390158726569,44.61122656706306,1022.4436491778313
250,5.001275423018869,-5.113716822716676,-6.734941993772473,0.00019204041573230393,-0.0030250492859062736,0.0004659934612121684,-0.22608170368333627,0.07482757389009795,-0.25602890557634966,-59.82783458264702,40.84115001752468,44.70588011632146,1022.4463204344121
251,4.975840258015745,-5.116851720192704,-6.7383258557328585,0.002577369868588129,0.0008032892725346246,9.89916939866753e-05,-0.23042701814269248,0.0792936956885441,-0.24907062033047592,-58.240522858945766,38.845459599694735,40.72171791200448,1022.4668408425944
252,4.889135467950777,-5.144988530330423,-6.791208033572689,0.001372629529906874,-0.004511361394691671,0.0008207346545672303,-0.28507621413388495,0.06099440516735392,-0.2835036951906978,-53.35809366442702,32.76700773698308,31.308349846024477,1022.5003883431963
253,4.701785125290959,-5.198732179843552,-6.888475695662049,0.003029274634248809,-0.007395300975936381,0.0022841824522681683,-0.39905880057888027,0.028221239683081385,-0.3417570208887884,-47.89833642689752,21.147331138742494,16.294638435802973,1022.5870570648102
254,4.535721918224178,-5.219444130495088,-6.982788762746011,0.00414319381005691,0.00030395281968516926,0.005532314351545075,-0.4874571748270438,0.04893644412383467,-0.41058644151770907,-44.714469595349044,11.636161509701985,11.682546952320664,1022.7154225818408
255,4.429612870182489,-5.245584382508058,-7.032630638310148,0.0005786038580952424,0.002713266786371393,0.007214514993460239,-0.5511737641211275,0.07355955237596648,-0.4672254623173956,-43.08561376435464,3.1833116658909635,11.328052527829104,1022.8750860966501
256,4.346905447606895,-5.274185338298219,-7.069142488992453,-0.003858172939596344,0.0004183584959188526,0.00487138221978764,-0.5805384047552186,0.05769240398333619,-0.47476409411004017,-41.55412722133793,-2.5855557049734594,12.463110742177761,1023.0525630326788
257,4.287045014373445,-5.2839468382225565,-7.105501538958691,-0.006723041639744197,-0.0008858506452828904,0.0017293786764702476,-0.5860820750848407,0.024068814115690097,-0.45446511884386376,-40.29531753518474,-6.381459114720604,10.528895133568586,1023.2287367524237
258,4.218562082269809,-5.295954662690151,-7.154312761757773,-0.003230555861572503,-0.0019029413195759972,-0.0026668094553374887,-0.613380845071767,-0.028452935843077475,-0.44165890617430537,-43.26712286607293,-7.849474619883518,14.376589162691138,1023.3765876407849
259,4.167434122832167,-5.3116992363218,-7.180343748590503,-0.002674253459827599,-0.00561221939885544,-0.005412333796072448,-0.6346489748195212,-0.08006323031415019,-0.4170538921090847,-40.27248531750282,-13.520671418492396,12.049390246056916,1023.5022419846263
260,4.162661109119163,-5.291873184647367,-7.196496743232189,-0.0020589053952808543,-0.005317615312801742,-0.007027861452468824,-0.5964201871857774,-0.10281254194001861,-0.37069593293065317,-37.84880021052053,-17.152371418915234,10.959793722680052,1023.6052863218927
261,4.180878112129832,-5.2620088168691215,-7.207270069868037,0.0011146279337155597,-0.006024806992754095,-0.006382366509279065,-0.5399659668471856,-0.10144138746620919,-0.33259458084495813,-35.52853738359253,-20.832439521140294,7.530758714648492,1023.6840170492885
262,4.190416055359706,-5.25018159910942,-7.2070054173087605,0.006610381425518246,-0.0012429049884640723,-0.004750044335384041,-0.4930053415257164,-0.083542312092176,-0.31040334366549344,-34.572127038702746,-21.978840470837497,8.94226200294216,1023.7419109718646
263,4.210187637403471,-5.262444583507564,-7.18622216904723,0.005298170568673145,-0.0028742193808995132,-0.0026762416574049605,-0.447244810202132,-0.06335342235669049,-0.29648633022162424,-33.16074179848574,-24.214449496205436,7.535366301883922,1023.7841644916272
264,4.147547705059481,-5.276583013503867,-7.215430156071438,0.004018823391259982,-0.0036727392564637916,-0.0013213324496156589,-0.43780641483076194,-0.0508036745611422,-0.29726571374562033,-31.910454360896935,-24.95777942344942,6.100237663510019,1023.8166106601692
265,4.101133214884811,-5.290493977916414,-7.234777483518796,0.003997470638150063,-0.0018954649289971335,-0.0013005465561714232,-0.39314513543662116,-0.04307606436492019,-0.27463596614903873,-31.005374330993593,-25.912583362867338,2.457286364925296,1023.8430739037105
266,4.146190572601943,-5.297567460609355,-7.200259737123903,0.005179566295970672,0.0022637595291037644,-0.001669431395705595,-0.29532351126156214,-0.020923748756099782,-0.22688387860434228,-31.839635479277995,-25.431782976114818,2.9623778188218,1023.8692720582138
267,4.175888785424635,-5.29709760701415,-7.180963229764823,0.002112886112318915,-0.0011312711910317773,-0.0008261037552153229,-0.22032938693786838,-0.0033071879854420783,-0.19161844472766276,-32.80685511652215,-23.245317720885787,4.821791402569485,1023.8916594825305
268,4.221248352907346,-5.277368877588025,-7.16419219534913,0.0010377301859663514,-0.0007930017295996747,-0.00039068575208295493,-0.1348124384623864,0.019531405823962136,-0.15142370933157387,-32.645402165752984,-21.698172215011724,6.3894990400635665,1023.9112656690922
269,4.255697146244596,-5.267178913249103,-7.149453617775819,0.0029499218119032923,0.0011291326217286448,-0.0007726967010401981,-0.07753685876674052,0.031457314548126857,-0.12335125739725729,-32.60949157490247,-20.746026464872624,7.8883786453207,1023.9300272969349
270,4.279950527432356,-5.276110866205863,-7.128392815240145,0.0023173019991348095,0.00042359583573026367,-0.0010189788205650012,-0.05329403450565855,0.03311463974284234,-0.11030464293552197,-33.46126386237953,-19.653796886114513,8.532624112492877,1023.9493471680519
271,4.262754258667137,-5.2779383547329735,-7.136830866357582,0.0008229634021655642,-0.0015893533458818053,-0.0003604097256940162,-0.05074130218940735,0.030755823166708784,-0.10625004455873549,-33.991571987723425,-19.050851996434144,8.93690893517905,1023.9711768251957
272,4.230299344165041,-5.280643508099547,-7.155983211013357,0.0009827342163016008,-0.0012984650861140124,-0.00012964071176855876,-0.0562099499198353,0.025210902557537405,-0.10684031448483419,-34.38757582347288,-19.044161279369337,9.487867647477561,1023.994735304564
273,4.2111932946170825,-5.29679911444155,-7.1579566089822055,0.003592439001696139,0.002089335667666451,-0.0003218036811540886,-0.06635828683738156,0.018648420804211665,-0.10942233857497985,-33.97393687313637,-18.916151179659256,10.622595783113091,1024.0220288342132
274,4.219525276611109,-5.301052290806967,-7.150600516492355,0.0008709992826487355,-0.0013392206083204178,-0.00029783858985880875,-0.04740827197040823,0.020162327122625563,-0.0997515614262789,-33.53520117381505,-19.139697370754295,12.628984343968112,1024.0524192915873
275,4.15424383138849,-5.312038880859692,-7.185048290015567,0.0006038826414079829,-0.0039371539442107865,0.0002582025134893446,-0.07482008480903132,0.007707022414071089,-0.11021971267944705,-33.238141881940635,-18.985721801933654,14.693189447699142,1024.0816487641566
276,4.102832054186036,-5.330525502341554,-7.204758780507007,0.00392830294234762,0.0007633011485602016,8.875070233131687e-05,-0.09544739743549222,-0.0014624127117456708,-0.11848737054114063,-32.952717186567156,-18.559515074682857,17.38752696711358,1024.1029817131416
277,4.1585289453621685,-5.332195845225413,-7.161362603558237,0.00034607772046219704,0.0032335936759725482,0.0007343637369587557,-0.03355971934726667,0.016178174394961775,-0.08702362577032297,-32.65907082681241,-18.386143224555592,20.501703367179964,1024.1087404404504
278,4.336792110565146,-5.274662205363316,-7.085439436304815,-9.804903886020689e-05,0.0014756053204661819,0.00023846633166331856,0.12269470639821586,0.06564694208662353,-0.017332064834969185,-33.09083120362916,-18.389270152666803,21.990280946942622,1024.0980415951576
279,4.458745421436879,-5.234856977489844,-7.032018617303841,0.001217095256956634,0.0025439377831816806,-0.00012593836982718605,0.15117190416638904,0.07411935371392307,0.0018952344843853053,-33.5541918663338,-18.20587526763572,23.152140115029482,1024.0735171937708
280,4.563715311980782,-5.21417389572749,-6.97467273141136,0.0014598760250705547,0.0024126546824376647,-6.916663816761934e-05,0.1447101255073068,0.06838528273491619,0.007272033071063143,-33.97418042862363,-17.480430972250808,24.133999095699732,1024.0371711351459
281,4.629866895443638,-5.194431188301893,-6.9433730511856675,0.00029593152433912717,0.00011611443697323197,-1.2365262380611427e-06,0.12909459871270298,0.05984748584032967,0.007339114173793836,-34.30431865496795,-16.898266537577467,24.85799859670759,1023.9968346149533
282,4.6712595896960565,-5.17654835682726,-6.929248704013075,9.31089327616109e-05,-0.0005380635842998836,7.82684041917196e-05,0.11268419709497544,0.051272733437850444,0.003686919380461095,-34.59683589398906,-16.52157503073306,25.410148344123183,1023.963005217813
283,4.710706910983135,-5.169202211760788,-6.908559722104672,0.002134003576144019,0.0028598898142618324,-0.00039130710650214263,0.09385940059021261,0.042493016173856,-0.001108081482350263,-34.73876757260509,-16.349371835247016,25.770819163701315,1023.9379439828971
284,4.744517465803775,-5.166384769922367,-6.886131217262111,0.00021369301525334225,-0.000278913722729686,2.370256844240183e-05,0.07700951847016195,0.0337882683750072,-0.00417116189560731,-34.7178105067814,-16.47338734397552,25.96352659997202,1023.9192821367138
285,4.755798762963447,-5.157923695171249,-6.884837697399807,-0.000205146805600064,-0.000933128676298167,1.5144974018892294e-05,0.06186785398072812,0.026966444810018177,-0.008542204646758884,-34.623861229955,-16.73391238553794,26.022336530062688,1023.9040128706847
286,4.766745018397518,-5.153412915447515,-6.881013540363989,0.0014512560760138698,0.0016473751363900928,-0.0002520411714280051,0.04923736215350456,0.020737157022336004,-0.012484744287558337,-34.485084328074144,-17.041484663551433,26.053042696997615,1023.8921268427663
287,4.7891175385785925,-5.156739052936937,-6.862094486408393,0.0006467123429673036,0.0001568333145650642,-0.00046865401182054556,0.03944877091387167,0.015102745440593295,-0.013499527501619922,-34.40365460364778,-17.185590928242064,26.090116433869,1023.8813495434838
288,4.7903604929081025,-5.15189319444756,-6.865541997821772,-0.0001913515008471079,-0.0012900064389939527,-0.00019458927068548981,0.03148038465896432,0.011158154636808467,-0.01567169748601781,-34.141886037682504,-17.938966383122974,25.939291263693928,1023.8724531526013
289,4.786842089800033,-5.146960838895386,-6.872045692400508,0.0006766069861291955,0.00010461688657418785,-0.0003046801949452778,0.0253535204270355,0.008367911223989543,-0.018461878615509054,-33.87871812952909,-18.915466363226088,25.827982698477467,1023.865960176979
290,4.803961576840262,-5.152638252600901,-6.85518216911533,0.001683995550041359,0.0017811907828449117,-0.0005731412659984936,0.021412911212888373,0.006746782754273605,-0.019179844701853518,-33.67473905743787,-19.547315626532615,25.77923061709305,1023.8661886813222
291,4.809469019316145,-5.153656725677453,-6.851015678876696,0.0006007710509795523,-0.0006978767072241137,-0.00038366245274502214,0.01889133417346238,0.005498740472439994,-0.020720376297339985,-33.45615349704791,-20.08592963135681,25.7765471198088,1023.8707249603685
292,4.80950450844199,-5.152864165870711,-6.851112884443363,0.0006141436666206786,-0.0006106136889889038,-0.00047144025227022565,0.015867331636225016,0.004946514101695304,-0.02176120068368528,-33.198791407126194,-20.559143797934297,25.67885832664215,1023.878199382989
293,4.804168962570119,-5.149954797613386,-6.857307153846732,1.8941124149321757e-05,-0.0015394542570261443,-0.00017760134008258145,0.014555329506456875,0.004890033921067456,-0.02239001863917642,-32.869677603965535,-21.529037894243732,25.697806941715555,1023.88886909911
294,4.803542346056408,-5.149643904375213,-6.8581876536921325,0.0020214302249731177,0.0021474579652670136,-0.0005194700437042925,0.012343003438473835,0.00535914085793404,-0.024467080749561766,-32.59920076730698,-22.450378920377553,25.646362597839033,1023.9034375162163
295,4.8191855648184605,-5.156161077482263,-6.841675930484227,0.001206595118524865,0.00048491013289914315,-0.00032046191609006933,0.011545857487529473,0.006189394136413034,-0.025556689388467124,-32.53885884864037,-22.198976408321304,25.53749924433714,1023.9140701849441
296,4.816583128239117,-5.1547849619616,-6.8443222082668544,0.000528404743357374,-0.0007435369201552703,-2.2766430347124708e-05,0.010146912598391499,0.007470352224394027,-0.02731964941618463,-32.42893243751919,-22.175556856606683,25.444004615177047,1023.91956295108
297,4.809419363064128,-5.152599783941569,-6.851094166394046,0.0011585383037325406,0.00010964137688446412,-3.708154029039638e-05,0.008043781240922608,0.00831715927923357,-0.030042677511547402,-32.562240173565485,-21.711742327998415,25.405618711707103,1023.9232214197173
298,4.820236453992689,-5.1579516147694955,-6.839369969327459,0.0020407018443621876,0.0020344983107073752,-0.0003023869473054603,0.005928565197564204,0.010172061726680092,-0.032099125458548816,-32.569499727335675,-21.195880305977138,25.307322644955352,1023.9258299347099
299,4.820971860256317,-5.1582593229948275,-6.83934341081397,0.0006854784343668101,-0.000399291543349411,2.0319468203000004e-06,0.004708662772695527,0.011334240959216558,-0.03412551093437927,-32.33781327350059,-21.449714517990493,25.1777739822622,1023.9273420166662
300,4.811417359593613,-5.153779998141412,-6.849221150782497,0.00021536014321057735,-0.0009519879660386556,-6.389555679099234e-05,0.0029099622603166357,0.01246499169137416,-0.036076073243765674,-32.33030105573718,-21.64245794196332,25.18878916450962,1023.928053873782
301,4.809902040278872,-5.153084168613111,-6.850747970738538,0.0020876775156545885,0.0023572239802426287,-0.0002794907191322204,0.0017502231648913917,0.013861064341140147,-0.0379307750063326,-32.696889093744595,-20.88831325028074,25.315397654509212,1023.928573418276
302,4.818614484475894,-5.157458340216235,-6.841148972915732,0.000982357839070652,3.985988100375405e-05,-0.00016924760682823838,0.0011307388769799555,0.015055765392768058,-0.039112485905266864,-33.13550897006519,-19.587276356878967,25.503583370593134,1023.9317352135798
303,4.810254097611273,-5.15407698341205,-6.850301145759995,0.0004304411043591787,-0.0011778812069920394,-6.469091259846688e-05,0.0013890060694812256,0.01652353543155804,-0.03987052012361631,-33.53576458750936,-18.5243309473762,25.555475574815677,1023.9340428302418
304,4.805176245232075,-5.151266195588326,-6.856831176683368,0.001871602138464061,0.0011320396495221549,-0.00027806199117961226,0.002762299127420099,0.018391862898589743,-0.0407319776288302,-33.7786772872434,-17.932374261603755,25.597642767794852,1023.9339132011213
305,4.959710952386005,-5.120630618058791,-6.766766023418029,0.0026439982427713333,0.005406428678039754,-0.0005537616183745947,0.1280169527809467,0.060824997005029205,0.01881106558642135,-34.04368041173419,-17.326982495875175,25.869343768926207,1023.9207098022443
306,5.244324703295937,-5.045100982031572,-6.616524829127097,0.0020049147651104086,0.00446184841781038,-0.0005540382987518135,0.3762767764825447,0.14479171435914684,0.13615855513340291,-34.56867795351249,-17.590552022479024,29.74561055335323,1023.8920905872085
307,5.460276069074499,-4.984799746064832,-6.502521581214961,0.002455365848445295,0.004069258187542301,-0.000564593631788649,0.528659011019527,0.20390767860959497,0.20226039356410408,-35.35997002268441,-18.4005744347358,36.86820066073988,1023.8501586724573
308,5.632391613612874,-4.946700042247424,-6.401670282276228,0.0031760611711934843,0.005340150414884358,-0.0005663564268232529,0.5692783075431846,0.22962551603146972,0.20988392405685183,-36.11929043176299,-19.61744854994943,45.67995002010232,1023.7974804608797
309,5.751545250866994,-4.921131123031166,-6.331643469589342,0.001930649109289235,0.002221626170545803,-3.064526014298695e-05,0.5673195811080604,0.23645412752355385,0.19793197957169673,-36.18534323519988,-20.87257157953717,55.04880546563063,1023.7386902923238
310,5.825569013566408,-4.902577374795007,-6.291807705147146,0.0014651078145921214,0.0013079955450517977,0.00013080315260433664,0.5496202918218445,0.2343581344042369,0.1771682975614787,-36.449231868234314,-21.409170567142866,64.75881280999823,1023.681973077918
311,5.878603224388099,-4.891138073684564,-6.26256720986007,0.002293600618804012,0.0029485165404523382,0.0001344014287930075,0.5162585061942493,0.22811938393251854,0.15017503902816884,-37.71930046267841,-21.354485319387777,75.76236853752596,1023.6265831989041
312,5.922375015039203,-4.887422314009359,-6.229898695335291,0.0018235432538481146,0.001263165383586811,-3.671792483671987e-06,0.4860217192835759,0.22287573956670437,0.12834925405290443,-38.536619649576366,-20.35739184063032,88.81028346572984,1023.5737492351255
313,5.941185600178037,-4.881930177187836,-6.221550172980624,0.0014574680548280318,-4.741862704858084e-05,0.00024330660868531539,0.45712184860609256,0.2198957665745101,0.10472146376818202,-38.337791502655634,-19.662804758589974,100.34241979607259,1023.5263878159456
314,5.925626602908525,-4.887505089511425,-6.231318981618615,0.0014877400492688342,-0.00020749814437468565,4.943519096536531e-05,0.40830188651205535,0.20827618050732732,0.07252571831524539,-37.114273218208105,-20.404975399214987,106.84468455849786,1023.4910587273739
315,5.900071096353544,-4.903369250642656,-6.236776923723444,0.00230620451013773,0.0015537860436679093,-0.00020825383809681034,0.3485042700234767,0.1925164218952103,0.03859035899941092,-36.623024492321896,-20.664032506087892,111.70604172079291,1023.4652740115397
316,5.859279840048517,-4.919411304217036,-6.254386808098196,0.0012872322009939467,-0.0009457120214192718,0.00012184983276372985,0.2857636874325221,0.1766567349278152,0.001940667770224301,-36.76342530517069,-18.752349425637068,114.56132039834542,1023.4464551968595
317,5.8085796201441715,-4.93289478428903,-6.284358053270835,0.0011153520639796668,-0.0008143432951102849,-5.425991568803462e-05,0.22531469931835996,0.1610035327403811,-0.034116950910968294,-37.76994094060767,-15.750965679190697,114.69595237902588,1023.4389448009866
318,5.762786485154017,-4.943989815644721,-6.312390515747659,0.0019263782895158053,0.0012761989493093367,-0.00020226801517845866,0.1680943387096782,0.14902322583693817,-0.07046319817634844,-37.29334762096904,-15.746321063474602,114.32560445102698,1023.441810942003
319,5.722944500763611,-4.965439946980842,-6.325901514322954,0.0016948962951534008,0.0002920327835418449,0.0001300168966670222,0.11482532458579446,0.13315990670210762,-0.09971372187416411,-38.01926951557788,-15.180816221805088,114.63786995296967,1023.4533841796316
320,5.6762296719541,-4.987212855092163,-6.35000516748763,0.0023425865381438544,-0.000617899755124077,0.0009119494078224603,0.0670380180966875,0.12111648268108668,-0.13179362679128623,-35.146243592949325,-14.892501374802707,108.14678966006971,1023.4709410430002
321,5.628801485900862,-5.015353561033891,-6.365010568961652,0.0036296600980565003,0.002611015705306622,0.0021029947467974376,0.022517221568769223,0.11415596750758984,-0.16212174482099045,-36.49643347893826,-12.568597696394194,109.7444495469666,1023.4837548106686
322,5.605435733911036,-5.020393099852322,-6.396942905226033,0.002496486920217298,0.0049849562084989096,0.004065332468749102,-0.01481369368824293,0.14342950687371697,-0.23491517610087542,-38.5720145206326,-13.101911028682768,112.55577175669409,1023.4902829165213
323,5.5695562556876395,-5.016041541057489,-6.437456269477224,0.00018953620923626993,0.005581431779644697,0.006133107703677495,-0.05599146772327975,0.18242997597921534,-0.3075780500986223,-38.94863945536443,-13.520081065514132,112.31898571648088,1023.4767859347285
324,5.414629179449878,-5.032563072641004,-6.561240760967235,-0.0031950356508419885,0.002321855437275868,0.005703926693081249,-0.20116016525821542,0.18357526403006527,-0.43602060744958293,-38.12380589762768,-12.997225975337972,100.88045060186201,1023.4418307102641
325,5.194208379478863,-5.110703643330466,-6.673242917272132,-0.003988023705511667,0.004696859000645115,0.0028830616219782303,-0.4190898932535715,0.10677959076517399,-0.5508865736946277,-37.26912561288219,-13.162037520679153,77.76727567238918,1023.3813209300469
326,5.087404639981996,-5.1440196170016845,-6.739406527259797,-0.006378505469973639,0.004273388454667226,-8.70289484454982e-05,-0.5323895453232291,0.04711343537351994,-0.5996488666556272,-38.17888295253667,-12.035334403271937,59.66239027114674,1023.2920813281024
327,5.126293546346728,-5.127124153120243,-6.714021623933528,-0.006513740837688674,0.0018829571586765144,-0.0011336014631290708,-0.5053411037944543,0.02032932197900007,-0.5489043906059421,-43.99536819383507,-4.430843265084183,62.93035317931697,1023.1758962380487
328,5.169118878184801,-5.1382163769605915,-6.682030736833519,-0.0028824984400188367,0.0025001408409973686,-0.005118037922178758,-0.47071405698079694,-0.03738923069818319,-0.4864399720203856,-47.0494971955348,3.2390768201497506,68.17818184323765,1023.0624700075592
329,5.212671474425196,-5.168746903434262,-6.6304136719334235,-0.0006920928393146977,-0.002162361656738383,-0.008767275714969146,-0.4478463682007558,-0.11722887596511092,-0.4140341281848311,-48.94607427669955,8.841385124958432,72.43937525787956,1022.9360730992935
330,5.239203791354876,-5.19446426986189,-6.59409071371022,0.0026181624267954005,-0.005634675225253773,-0.011268208592497348,-0.42967733560268145,-0.19168481566293202,-0.34617481444954423,-50.224067315741365,12.633720157366133,75.4947022824716,1022.7982104664571
331,5.243810702258491,-5.2149866369063345,-6.555071552675499,0.0061370547226030315,-0.007238422135778337,-0.013376156603384266,-0.4258989359124633,-0.25015080001715745,-0.2778224762525887,-51.86209939717005,16.3447231124637,77.03158155162218,1022.6600178736945
332,5.259412397529117,-5.230611788417697,-6.51340477477769,0.009594815277423481,-0.006427987310462454,-0.014724625350196408,-0.4244719493586138,-0.2879834722406325,-0.23070367582759854,-48.771134123696456,14.717230366029067,71.86337044415545,1022.5394544846762
333,5.267712058862785,-5.253564374265902,-6.479346098706786,0.01051136118849223,-0.010020543592913513,-0.01538851944431896,-0.42061625576145684,-0.32776596376462486,-0.18795311176390206,-45.06751278967158,14.174153106570797,68.28444463454368,1022.4317576605001
334,5.264670664110591,-5.268136496176638,-6.468726467565646,0.011365512397988652,-0.011720162938669103,-0.01638938717682259,-0.4174955262334967,-0.3563912859948291,-0.15986704986211864,-48.363777795419864,19.991046348901584,71.68591072092732,1022.304162703195
335,5.161468233202027,-5.304758996012024,-6.503345707498539,0.012992882705182146,-0.012619716338601114,-0.01710522799855551,-0.5044360737869977,-0.4048618300853836,-0.17131703789930394,-46.591484733242446,18.41409918916414,63.70959153967162,1022.1685586832983
336,5.088817028897534,-5.339032987216087,-6.532796248104043,0.014247187013733868,-0.011831221506543775,-0.017150553086577123,-0.5755802184073022,-0.44133095095088115,-0.19750944410712304,-46.74576444068542,17.57635879813176,53.41514212303308,1022.0432062865489
337,5.020714952311298,-5.34023037888527,-6.569466567364557,0.014204951563467001,-0.012525272662162282,-0.015214533595055379,-0.6263055456476294,-0.43526869833511883,-0.2211569727819223,-46.5039469975335,16.503554522708654,45.87378771698651,1021.9319731710848
338,4.967791294685574,-5.33391417352239,-6.610655692638055,0.014744661347660967,-0.009708656219352584,-0.012435009442425163,-0.6506338486959645,-0.4057157123160561,-0.2552423259235383,-45.95708735660022,15.697904602252162,40.04006231197439,1021.8507903727291
339,4.943903004166695,-5.3161332379790975,-6.633537719837781,0.013642321495747336,-0.004673047151255635,-0.009643964126873636,-0.658442169548907,-0.3470106681146073,-0.2964450584286322,-46.46150330535843,16.684488507485717,34.91743115981918,1021.8241466559506
340,4.933690749466022,-5.286920347293747,-6.665008088991714,0.008781267572807672,-0.005467235959405035,-0.006822482502456154,-0.6323253213430933,-0.2810484827507494,-0.32607435893309034,-47.51221184140489,18.2828402691376,32.76045324196978,1021.8432027576144
341,4.988393469701389,-5.231924855151544,-6.660557862626899,0.006372110791521531,-0.0034907034529632784,-0.005330230398172795,-0.5356789988068809,-0.19956895655151477,-0.30794673588124255,-48.489860325837185,18.83048907368214,39.187115158285074,1021.894849936901
342,5.0830541054445915,-5.183481388215236,-6.6292390005504105,0.006262453329015327,0.00048100382436350696,-0.003605677178025138,-0.4166968828825901,-0.12861809387125653,-0.27473819468678373,-46.7244382831826,16.822359769619638,48.00202548798921,1021.9734989109725
343,5.159246840065835,-5.147669795297486,-6.599059507226347,0.004089826407069018,-0.0011700449033731903,-0.002552221773117324,-0.32742246709366496,-0.070971996908494,-0.2497382179427965,-45.15208047503336,12.030918408942957,56.16823123492465,1022.0677945293717
344,5.208573787413535,-5.127192816382495,-6.583620759629112,0.0030582588705864175,-0.0013634773109868156,-0.002048076178401347,-0.259008228091538,-0.037886315269661484,-0.22642094938221213,-44.18410471638911,5.447972210451856,64.50389875217675,1022.14937399797
345,5.18587058450128,-5.123352462654371,-6.608347940126255,0.0028566926191457573,-0.0019475983945100466,-0.001299890262476829,-0.2608941706857481,-0.025045016645300087,-0.24105582533398265,-41.8355184940934,-0.1359244483780131,67.87557174361936,1022.2212812072761
346,5.081252222814683,-5.155417210152594,-6.644455936228207,0.004329968534262185,-0.00020211726840415733,-0.0010802825406617182,-0.3506895675058104,-0.0385665567825154,-0.27822268602460476,-37.90114824153002,-9.9978576866835,57.67006331780942,1022.2784202707148
347,5.042006724083175,-5.167228743938921,-6.65496823549641,0.0040508630796097485,-0.00021829541132682926,0.0017941480369008072,-0.36323644647600434,-0.021675249050439147,-0.28897640234926786,-37.746612461017875,-14.612323648324448,51.47078692010124,1022.3201228612251
348,5.054043122009722,-5.127811511718329,-6.660137822472449,0.0032490499992141302,0.003380929934147369,0.007221981895419498,-0.31784892088580224,0.0669272753704038,-0.3067961703324147,-38.84353267452765,-13.826869514869939,52.45442689288153,1022.3483126187999
349,5.004204587949488,-5.114612152142197,-6.679205334069965,0.004479737921203064,0.009574391423680065,0.012194450287809206,-0.3325238887995567,0.15782871120681297,-0.36752347085397175,-37.4059942453867,-13.460311003391913,45.5724948017735,1022.3666401191969
350,4.891149980000722,-5.140756981220835,-6.737336393284676,-0.002285044443585716,0.004275579563373533,0.01597352360915104,-0.40045476747751274,0.20948406995235,-0.45210310566984035,-36.82533133333701,-17.014148460797518,44.26253447419836,1022.3721428988747
351,4.730369056041219,-5.176028915574983,-6.827162742315561,-0.006360212426654731,0.005991206055346766,0.01812682793191974,-0.4831119129484589,0.23100127526183944,-0.523302839155753,-39.27677685186031,-18.113655269888643,44.55152255882155,1022.3662862096771
352,4.62837244368337,-5.1973502805754395,-6.869442635983456,-0.00608734004343589,0.010417973465963995,0.01850161005550094,-0.5163922214113785,0.2591618451366216,-0.5521633471115919,-40.82880125487961,-19.26522023100551,44.392515567409596,1022.3572710402414
353,4.556569112160317,-5.232332942724971,-6.878658028983094,-0.009501344826845075,0.008771952862333876,0.017500024064364107,-0.5351621710635308,0.266745061986083,-0.5546992530797628,-41.6983613717409,-20.318002458187426,44.60133944230338,1022.3476821047857
354,4.5153230081028966,-5.257778264679779,-6.892015382540737,-0.012551316146329454,0.005034596402023369,0.014054302492950643,-0.5168568062817486,0.24310466231878597,-0.5212186327829629,-43.239720886419946,-21.60733772009775,44.567857972121715,1022.3375509483758
355,4.483977218249414,-5.27928609607282,-6.911431278520401,-0.012624780137788508,0.004027304408747351,0.009301479477813443,-0.493024667030245,0.19124513476158886,-0.4708579493313259,-42.18492056341073,-24.94780898542391,38.87809305056386,1022.3244681074501
356,4.490764368815808,-5.293109494293926,-6.925247600980858,-0.01001189493593045,0.004208037288687924,0.005064252507563314,-0.45812003946963886,0.13876043925006062,-0.4295679580185975,-41.34307061399226,-27.888517765356724,38.26018695205511,1022.3097048519116
357,4.4928532058138675,-5.301140862109086,-6.931433005959846,-0.008356999021546975,0.00011440308225606991,0.003559456619740653,-0.4223760700761119,0.08868691242614399,-0.3762584589955244,-40.643976198662116,-30.680143049285917,40.03037488606635,1022.2989299815644
358,4.452158253125595,-5.300706101130484,-6.958307912761262,-0.006605646919108568,-0.0016367479927084114,0.003988063756786997,-0.41626107106375954,0.0569240257552284,-0.3435364312724166,-45.09620793482778,-29.355848375666945,46.05972103073479,1022.2944670059247
359,4.362649428850474,-5.318043188911676,-7.017762753419006,-0.002639178990316053,5.419035078729566e-05,0.0013015980629076849,-0.4625552622074874,0.021949710273390537,-0.357114849170537,-46.12291898007969,-29.311788690043326,46.92372266190942,1022.296280022662
360,4.294819286154519,-5.336953939757753,-7.046385914506934,-0.004410075851519351,-0.0027245532406853564,-0.0005262628313052106,-0.5001475567247452,-0.005616844643627657,-0.35412685583139714,-55.48137041158844,-21.196733071064383,48.47966163982606,1022.3037455132986
361,4.2152326720855715,-5.345983183161032,-7.091741341385812,-0.002855096845739844,-0.0026512812503237827,0.0018691368691348797,-0.5323117388693237,-0.037845814406480605,-0.34877071940529963,-61.85707414237655,-14.055950048053592,44.161955832281485,1022.3145529738838
362,4.16009085999129,-5.333272233256091,-7.152009247453412,-1.8014891778349307e-05,-0.00015890352212698114,-2.847864704741041e-05,-0.54803201610213,-0.036604528001276664,-0.37087865585394625,-64.57430483089225,-4.915041598572637,37.34614744238201,1022.3238423022844
363,4.196618416080392,-5.349064379692952,-7.124563358140972,-0.00017351555285090954,0.0018431579358060219,-0.00035764353220273435,-0.5086038644571323,-0.042880094243519955,-0.34866863869938164,-59.772079126287224,-7.060480002185649,27.256872106577475,1022.3306220609136
364,4.211505126002396,-5.342294614456203,-7.131719513085689,-0.0027520377026855358,-0.0003922466077535317,-0.0005883487269260889,-0.47404313270923626,-0.043467300230249056,-0.33793788676147946,-49.54905766257902,-15.79899719320091,18.416329587757076,1022.3347973087119
365,4.203360110770398,-5.32045685107734,-7.132003688799464,-0.0007190603689383947,-0.0011735036077541883,-5.709419044136986e-05,-0.45821695505439514,-0.0332961971614386,-0.31142501671614015,-41.85315029916097,-25.847364165439355,12.630375514467126,1022.3370716704592
366,4.216271031715897,-5.318823425873757,-7.129399188739687,0.0024676498940066935,0.0028858567170766108,-0.00045028667294125084,-0.4293121249154114,-0.028841172389849203,-0.2996637799355896,-34.88967447552705,-35.8374056051285,6.900092047987742,1022.3362375171045
367,4.215689295009383,-5.331198678444725,-7.124596383651047,0.0010206593171756839,0.00014582185509859477,0.0002740622048491365,-0.39235786748500234,-0.03101331137990881,-0.2767959684582891,-30.89759018324415,-41.74459566537742,5.916713826825614,1022.3332378329851
368,4.251622109082145,-5.311138620084695,-7.1229804120371165,0.00016885552421628375,-0.00035858963108120355,-0.00028973216834830937,-0.30945327369365333,-0.01627597951809332,-0.23954480326017974,-29.825264941861857,-43.33777724026007,7.615312610453394,1022.3303066832065
369,4.263583687015412,-5.299682104552977,-7.123590850281948,0.0004373010354066474,-0.00044850941886315633,-0.0003760777088312343,-0.2551540832851589,-0.010913367012434646,-0.2071531712786106,-29.71595602798034,-42.87907857607316,9.745684100012806,1022.3281674017484
370,4.245255000671783,-5.312974285650855,-7.121221796946977,0.002373790593285223,0.0017491156980748172,-0.0006186840263918779,-0.24966510842710504,-0.016565783093546546,-0.19473135901283267,-28.79066851132291,-43.87491318581492,10.042193514488817,1022.3275129748683
371,4.2156607250011096,-5.323317892732705,-7.13491564478048,-7.778217000207859e-05,-0.0008060703801100577,-0.0005754487921116887,-0.24257666471508554,-0.021487616615089876,-0.18920433667456454,-28.15346412882809,-45.28236659464537,9.272032163573172,1022.3270353454752
372,4.241298931740647,-5.300230862021914,-7.131290722326083,-0.0001523402983412627,-0.0011827681922641226,-0.00035856424349142236,-0.18147690090453322,-0.003835912153243054,-0.1595782461440909,-28.876354576307545,-43.03849006963772,10.696265241443262,1022.3266867506296
373,4.269340172900567,-5.286310361706285,-7.127296038916255,0.0007461847185013527,0.0004783487085016794,-0.0006785400974306211,-0.12640026021659412,0.004081682772129423,-0.13337968739884296,-29.239855133950833,-40.20915202116481,12.813090932401611,1022.3279986965634
374,4.263413569191922,-5.294151737834205,-7.121785956091189,0.0016986647264573525,0.000211911366263135,-0.00048274900641742105,-0.12518763939586058,-0.0016895348480404143,-0.12506807417190852,-28.750782933109694,-39.985407712085916,14.653288119085708,1022.3327073311555
375,4.208953809693998,-5.309046359271738,-7.149052372002051,9.563998057191664e-05,-0.0016632094161415632,-0.00018689908642846066,-0.15505362004688222,-0.018336585842750542,-0.13599373057551234,-28.3067075678475,-41.753888258235456,15.614515800643055,1022.3385761152384
376,4.1462128850774125,-5.314651904439641,-7.1877342423059325,-0.00014960934807982368,-0.0028753677798645343,-8.435118547666236e-05,-0.15912064609191268,-0.02521137483763948,-0.13763917359711958,-29.557210036183115,-40.05628383186034,16.985581464648934,1022.3510627042187
377,4.050618340188096,-5.344924543866458,-7.226220225697745,0.003922646070604564,-0.0021035888948830847,0.0010393434703442183,-0.19292059067355222,-0.041810230357013096,-0.14894945366379533,-30.77810620041769,-37.607071993209885,19.320615743297825,1022.3682555254494
378,3.989796863306826,-5.375101625469043,-7.241741590834844,0.0009891919759978324,-0.002354150048396653,0.0005233243281736506,-0.19903788413810716,-0.048450482761971406,-0.15035380831028633,-31.336964410450324,-36.109540978939506,21.24386839800802,1022.380803599225
379,3.9619463753613275,-5.375903616584076,-7.2561083746141195,0.00020016955180223307,-0.0009300410970351659,6.454759427036412e-05,-0.1797737045647831,-0.04171142569178465,-0.14343736676177488,-31.842324633824973,-34.62423960605697,23.44136872600809,1022.3806248640847
380,4.096170121932129,-5.330891973936876,-7.20092929465721,-0.0002377303914254685,0.0053281774955411115,-0.0003857068127085736,-0.0381263794566479,0.005110483536858557,-0.08352727513946975,-32.79381333152008,-32.28453502229055,25.09015373359517,1022.3732083023185
381,4.2628793637594296,-5.273539120204276,-7.13142116231593,-0.00010409167059959626,0.0020365146001843242,0.000223103572821584,0.09947294598092357,0.05388442736891465,-0.024858554161426176,-33.79859485856078,-30.875962966042426,26.61125524539616,1022.3605092577501
382,4.394529879307053,-5.239421394218883,-7.068847210463341,0.002606872340929493,0.005231817467784717,0.0001060915729732395,0.13347383980807326,0.06699860863671907,-0.00681470023032945,-34.313799739763894,-29.97539536649114,27.582010477743815,1022.331742684521
383,4.491913035801453,-5.2195859016407855,-7.0183379233476835,-2.443794914635698e-05,0.0005424245621706118,0.000879659543229995,0.14236337676425354,0.0683240976158375,0.00020219579993794538,-34.26733891975109,-29.965231403849284,28.041832218421884,1022.2926716977639
384,4.530923242786341,-5.179969076738861,-7.022086749126441,-0.0013696102467222174,-0.0025406948941460983,-0.00048671042748281163,0.14019497360609756,0.07008587079118359,0.0008242177961333427,-34.18139272042598,-30.0601588048739,28.341806201894585,1022.248738706084
385,4.577201657990423,-5.157450868840255,-7.007631235067691,0.0024063543859526365,0.002885889584287976,-0.0013282168108902648,0.1332855565894337,0.07139030537651772,-0.0023375018455868797,-34.16537328767726,-29.741399281129084,28.735629902200582,1022.2115420572995
386,4.632789033031133,-5.150692419418655,-6.975009986163846,0.0015966579197771228,0.001292842267143729,-0.0010135520336984772,0.1222984015822562,0.07027986628510433,-0.006348965303795203,-34.43400243505668,-28.82049372747296,29.454491601736812,1022.1815087757459
387,4.662064426374105,-5.140848853910347,-6.96378548341303,0.0010154759445031502,0.0002026576442875109,-0.0007047750230955278,0.10680625774798184,0.06534237943918805,-0.012456035086539707,-35.138508263057645,-27.67062841964749,30.628217691512592,1022.1592801130605
388,4.67863478489808,-5.132059147044202,-6.959120468865329,0.0013138341493093455,0.0004166949960523982,-0.0005390452413336984,0.08835965974689804,0.057064231682242214,-0.0173021357685676,-35.950686408695475,-26.767320137357483,32.115144048970556,1022.1426030694015
389,4.707176491240297,-5.131397346958922,-6.94041185749261,0.0029889063282543624,0.003653696782034187,-0.0008342753294047454,0.07208233863256501,0.0499339100200315,-0.022399968569594794,-36.66011746431022,-26.27024553778396,33.66009658598553,1022.130349035038
390,4.728344296730719,-5.13116788263773,-6.925870271111973,0.0011989356736804163,-3.449079730476331e-05,-0.00043268772876898647,0.05886841587426915,0.043780150890151734,-0.025638342236600685,-36.775608356560994,-26.948995347586965,34.78218440293023,1022.121116977344
391,4.731464342786649,-5.1261695262453895,-6.928116085230826,0.0009245027644351781,-0.0008376583906475337,-0.00014703226851723558,0.04847681893689085,0.038789244511323234,-0.02906720705268015,-37.49742619636683,-27.06096423075588,36.19320170237269,1022.1143790173843
392,4.7319201012581384,-5.121384352716671,-6.932090146088752,0.0015513728527537167,0.00035579578577947784,-0.00011903263028509504,0.04032842400703082,0.03596475345550146,-0.032279772207935015,-38.54752394757816,-26.780636363742882,37.97175112034388,1022.1095026930635
393,4.751242237979881,-5.12615853296181,-6.914770920844741,0.00266481563664396,0.002202834215000067,-0.00044249755491288883,0.03451707731463974,0.03379256928630815,-0.03371326566817849,-39.54995183532317,-26.631935045788573,39.93506686385386,1022.1059437380491
394,4.755314218741244,-5.124439980553826,-6.913517781196091,0.0008811748885313774,-0.0011554730477362682,-1.6737045042535903e-05,0.030163553953273643,0.03188995808104482,-0.03473269142618523,-40.776432476164366,-26.205903097597083,42.069293839108724,1022.103160659522
395,4.749334872937663,-5.11964001763439,-6.921062005080031,0.0008858273065185958,-0.0011855703123532845,3.093385691485853e-05,0.026419120313878174,0.029960087531871932,-0.035781540288016854,-42.22556407120449,-25.688969267654873,44.52566148959792,1022.1011294469472
396,4.7527975139825145,-5.119654208104231,-6.918603986857393,0.002827382975894945,0.002471667047106868,-0.000287983133742889,0.02310990869703277,0.028077232775790054,-0.03718910119012892,-43.52137241678625,-25.448215223299933,47.017145180098616,1022.0999560377735
397,4.769115323988207,-5.125607530023197,-6.9020415713714005,0.0015362407957744547,0.00010600287291346678,6.151328803867518e-06,0.022279307030150842,0.02635855077132484,-0.036013396214296174,-44.82559803823491,-25.118039890750403,49.496156528551516,1022.0991821650998
398,4.76534968015429,-5.123824347768921,-6.9064722559965945,0.0007925063771949568,-0.0015205875369493072,2.70664809167216e-05,0.022718640843884887,0.024720813305444622,-0.03467486431538689,-46.45276870548112,-24.27307313081528,52.23623031782122,1022.0986998916588
399,4.758988497961715,-5.120462114644157,-6.913833202464475,0.001337747834878477,-0.0008825492837951828,3.450352227406734e-05,0.023913088366956086,0.024016264790270962,-0.03373897525495578,-48.41665283195896,-23.103147463508915,55.36240016461862,1022.0985332345451
400,4.769745590631004,-5.125349781642213,-6.902019584233223,0.002586105343979495,0.0016851166143059615,-0.000371106256131407,0.024381425006635406,0.023948662687892162,-0.03265658397757662,-50.978404205438345,-20.933051190669815,58.93983135682384,1022.0988651931657
401,4.7728056817832565,-5.12668616657353,-6.899494172460189,0.0008854460017331141,-0.0015194903677590364,2.7122749215817562e-05,0.02628722582181957,0.023629896625864996,-0.03141556032345797,-53.56447624187929,-18.28752833620924,62.46821066050688,1022.0993341321646
402,4.764558002748265,-5.123977495166171,-6.90723271302796,0.0007279409910644606,-0.0017202587156203348,0.00013953059891870636,0.026819289751007412,0.023097599697714553,-0.030609430503480372,-55.92897575820247,-15.794995387234728,65.62547171771729,1022.0996763843799
403,4.761430706856151,-5.123448316434773,-6.909859011466364,0.0019866178925227957,0.0008261136244237101,-0.00019204141769094704,0.02710642321085629,0.022969337871785456,-0.03032480255898279,-57.09699061104972,-13.427849535030811,66.59159353061362,1022.0999261750333
404,4.7751266605097475,-5.130096925836947,-6.895364707033357,0.0014398704770990107,-0.00021009231961154995,-0.00011806596414505327,0.027497207724510572,0.022538380555608164,-0.029346038939249426,-54.28702375023245,-11.877221608759196,59.62134563555453,1022.1003146123796
405,4.770268389668143,-5.127420376207575,-6.900600336387961,0.00042569208139790456,-0.00177402297187797,-8.232212903358601e-05,0.02765339893101933,0.022027471820254035,-0.029019242257282925,-55.4545990544303,-10.180651953573491,59.80824158949448,1022.10111329886
406,4.762494009640475,-5.123736753143035,-6.909269428784911,0.0009528644296734107,-0.0007761007196545821,-0.00011252165842383634,0.027526028134339894,0.021383957463655845,-0.02914971857042516,-55.27091089153488,-7.494591595708371,57.81799789593488,1022.1019436783164
407,4.773566929290339,-5.128299222083262,-6.898110509355718,0.002172170017818331,0.0019358102690415968,-0.00039878952549915914,0.026458033845504145,0.020333046532877038,-0.02895463252327389,-52.5258768097461,-5.810664821424811,50.68345929008471,1022.1025910595049
408,4.777946613945012,-5.129822282071431,-6.894185681850525,0.0004589844259276206,-0.0011717198621499455,1.154878075683831e-05,0.025865903174809475,0.019143958260765877,-0.02838475286868277,-51.096574751984036,-4.6110052065634335,46.4921239474578,1022.10357873454
409,4.768126485556186,-5.1259177825039774,-6.903850086483528,0.00012234894646693346,-0.0015385436803557035,7.493370471681254e-05,0.023078193154345006,0.018717118216159585,-0.029929935233392237,-51.8406231649203,-3.3335344534001816,46.71393827000844,1022.1044025125457
410,4.761152625880656,-5.122840838641173,-6.911636352976461,0.0013055582712240726,0.0009732974780403744,-9.342807367979309e-06,0.019354130083544828,0.019134725557936775,-0.033198428106882935,-52.23531728578685,-1.8213904443456657,46.62354530885385,1022.1053336025406
411,4.77541382963364,-5.129604225939805,-6.896424914170192,0.0013750139859370486,0.0014371959512328421,-7.625634450219044e-05,0.015198565239785078,0.018719159544674735,-0.035923260238786905,-52.077645983112824,-0.7399232790090455,45.53527291129356,1022.1061574162067
412,4.771582417878716,-5.1277619343125735,-6.900166025652307,-3.988762961794866e-05,-0.0007171738070396293,4.7479514530621e-05,0.010541028512688524,0.018230699653853908,-0.038431531709922626,-52.2910927752907,0.23416313151413082,45.276912184437734,1022.107191461745
413,4.761118341692376,-5.122722877375433,-6.911640015180389,6.793115641299932e-05,-0.0006064708144691508,-1.665828655581509e-05,0.005853612514538512,0.017997241757437363,-0.041742766087888274,-52.657105356375595,1.0578001364426557,45.4379020276558,1022.1080904168748
414,4.764543785924019,-5.124603944330749,-6.907830671463289,0.002397878831630095,0.003701543594771349,-0.00033275380301250423,0.000538152223521376,0.017904991827881737,-0.04552702341748541,-52.93559204420183,1.7659747681968674,45.61787708466638,1022.1088907771093
415,4.772465931525117,-5.128235770759185,-6.89979980199524,0.000603797183336446,0.0003040293039264031,-1.943691294916251e-05,-0.004063824884280981,0.01846669768831429,-0.04932560886378078,-53.149232446182275,2.403954283597254,45.69996493098327,1022.110629292548
416,4.762774960860668,-5.123186786816787,-6.910564751123955,0.000175141439889877,-0.00023408811407365387,-4.919820294427364e-05,-0.009452750952790703,0.019580843101741987,-0.05384505702563421,-53.85354766543402,3.142796492451257,46.52273664053189,1022.1157111220158
417,4.756531881344639,-5.1204578031842525,-6.9170667645561625,0.0017305337803681683,0.0022885642626841807,-0.00029455467898651815,-0.01467537404253448,0.02045887507345047,-0.05832581434679385,-56.089944780778545,4.4718384153015664,50.225897891982505,1022.1234394478055
418,4.771628497535946,-5.126699289542671,-6.901382116699378,0.0014541478763425916,0.001993655449042356,-0.0001795064725540968,-0.019172284467357404,0.021693461308019517,-0.062329962240533845,-56.28418381915264,5.837473192207952,49.929335063702005,1022.1290799183757
419,4.898844682509048,-5.086968903104183,-6.841734467004946,0.0006566810574490321,0.004303782684241145,0.00024709139523729055,0.09687904292110437,0.06394746144607372,-0.012234371150173944,-55.52571822771873,6.2791084232694905,47.62494368858097,1022.1298574500048
420,5.165219440702452,-5.00953207105567,-6.710367567601522,0.0019311395170457687,0.007309936775643367,0.00017182501770971294,0.32600572572090486,0.1457655281510966,0.08966062399608174,-57.47890295514087,8.402113718886561,50.930052248115665,1022.1240559939395
421,5.406818448941617,-4.953602459368521,-6.5719060118896735,0.0027817605101662806,0.008378112284064557,1.0153657472422014e-05,0.5070564272759249,0.21442304172675164,0.17371468685206537,-61.09414782654115,15.23040433443837,57.136314000397306,1022.1109382905531
422,5.580285687973402,-4.911799903807958,-6.4748962568908315,0.001503602491127364,0.004576948019861519,-0.00018801848615362926,0.6213141709954153,0.2595322459464959,0.2242276050933974,-62.851471352402854,23.751203361444492,61.96123475515039,1022.0915123594875
423,5.698923125293751,-4.882241701535805,-6.421430633923126,0.0012935197934983908,0.0027197843516363783,0.00031351617837886453,0.69639050781857,0.2875200333867425,0.2455958411639649,-67.40829396383755,36.27016050195697,70.36777281482776,1022.0703060803627
424,5.776581064744893,-4.862474984082694,-6.377660859126676,0.002540101918710892,0.004233145655602184,0.00023821094421401295,0.7367717395130586,0.3130023331861488,0.25823794222703234,-74.41188021075756,54.85992381050963,82.69834643140655,1022.0524171247707
425,5.828323055345749,-4.852604940676436,-6.322719362044034,0.002532993374735459,0.002992079701990338,7.981739176164373e-05,0.7432036859682546,0.33545050910345137,0.268410867860327,-84.24764594390436,73.63284200889863,95.02243241308175,1022.0387428642431
426,5.871251537996568,-4.856950016854475,-6.307988248256068,0.001908150227977681,0.001568443581727231,0.0004112460501387642,0.7558628461511436,0.33846212663005776,0.25498398729954325,-90.39879506150747,84.81999584584705,103.21749409029526,1022.0287627901397
427,5.891218361681553,-4.857906785600194,-6.297200440953265,0.0017421728095277846,0.001310107928689798,0.0006113302156191638,0.7520827055671473,0.34295258616385754,0.24256236263063527,-92.31821301058575,91.26214374269821,110.51786067851702,1022.0219735510742
428,5.882179303411432,-4.862815621172054,-6.297119687200206,0.002473143374090854,0.003386051786027449,0.00038731991114106473,0.715138614112438,0.34574395305620226,0.21459430491084902,-93.5157792804587,96.44922210786146,115.73436542170333,1022.0182344402258
429,5.8631994630709325,-4.881595060822222,-6.285807587759834,0.0019177354964434131,0.0031746956598749207,-3.0389345437378378e-05,0.6593248365902931,0.33640586608437306,0.1872505217862187,-93.87910957767053,98.94173906806255,118.878199541751,1022.0165875841066
430,5.8401805699879015,-4.902933985444989,-6.301898132835117,0.0014226995827775826,0.001899275513564363,-0.00034229071804337707,0.6047338780594216,0.3204677068558496,0.14233998309529305,-93.36504848701664,100.01543386055076,119.93004120626401,1022.0164677471047
431,5.793591140115601,-4.914444722341601,-6.330360148223749,0.0009438046722254991,-0.00039303406811398364,2.0441795760249852e-06,0.5437432030906308,0.31134794227275886,0.09965235613252149,-91.88288912579904,100.32670822147333,119.7614880760546,1022.0187506354163
432,5.733132719379114,-4.9283988920304544,-6.34970950866109,0.0005443146024513427,-0.00042938623451087694,0.0003254410001069956,0.47952811880155355,0.2999207271429945,0.0758721514551878,-90.45293298873048,99.70715740932363,120.31607891368108,1022.0221892821755
433,5.678521596281384,-4.950197433889729,-6.3725009043889465,0.002260913124485559,0.001745474151477316,0.00023774466446263787,0.41658821718730166,0.28518698998893416,0.041752492624606584,-90.19647834853126,100.7815916640851,119.93851817935908,1022.0259149302619
434,5.634891017141627,-4.9662339437702805,-6.391554952963312,0.0010423671980042133,6.319960209813622e-05,-0.00013564918189704902,0.35951393532719855,0.27498147746671453,0.005844198116336227,-88.30689165329117,98.73939706373987,116.75788253209303,1022.0290876636543
435,5.58981362939967,-4.968115870948253,-6.432729809444911,0.0002701084107639588,0.00013973036576882584,-0.0002009463008773904,0.30905494666957567,0.2703400114858404,-0.037730186549640214,-87.40481348423722,95.92594112796561,114.65475801643785,1022.0329282952282
436,5.49641744037136,-4.988594049360677,-6.5114738972129595,0.0016398352567751741,-0.0005730351804167704,0.002375164103049972,0.2131103903223312,0.2549784448097804,-0.1212372456517761,-80.44261432455549,85.58917387534049,107.03162658634241,1022.0427186765887
437,5.26277180678376,-5.048928224548521,-6.628236128748037,0.005864615639897949,0.004982007584287739,0.005892982171629681,-0.017549128505972983,0.23806387033220167,-0.27248072280406255,-69.15591183579541,59.22439460289611,88.55621361199529,1022.059242328347
438,5.027574785979567,-5.099612592211257,-6.74959010153716,0.0020963912109113166,0.006268165439593742,0.01179036607200849,-0.23331850453227163,0.25520378219832984,-0.43649812575459473,-62.09065120365338,38.84067683871601,74.25537426859086,1022.0771554875826
439,4.8999593753260315,-5.0971928933317034,-6.8296721365417845,-0.002614109623087249,0.01093817116679752,0.015701892300565273,-0.3349082549088306,0.32467335241773754,-0.5528559687748705,-56.82740003027873,23.758754934923996,63.19121025980406,1022.0942278776683
440,4.881128152477284,-5.080679473464283,-6.863924656556816,-0.005003549381923492,0.016862518949783484,0.01878471910417209,-0.3374483452759834,0.40030627427650756,-0.6259220838298072,-53.220697701179844,14.704696533833172,56.11411445348323,1022.1077600353697
441,4.88605544081791,-5.0801364571200684,-6.855342357255459,-0.008646808950714655,0.016293468816226925,0.01934702909041908,-0.3302498686994986,0.4552276474453005,-0.6626773515186204,-50.37858079254131,9.770781390767514,52.28794472025871,1022.117636396608
442,4.8620093895500265,-5.09773628903712,-6.869608515804448,-0.012557106341780595,0.013469576475494953,0.016797480567021177,-0.3401887727212576,0.4588497027340413,-0.6820581585456429,-47.4158636325915,4.4697705241467585,48.084393601777336,1022.1208665472872
443,4.821319330548057,-5.127659758148396,-6.882727592269492,-0.01297829384247023,0.010915704192268828,0.011807278086923861,-0.3691236740343537,0.41497802373666254,-0.6742552525284039,-44.96446211738051,-0.8003178213289663,44.3104011656477,1022.1206681047746
444,4.812354383451731,-5.194649736789519,-6.849703670371382,-0.010645706104882219,0.009948922647089528,0.004945645548908457,-0.38772430000507807,0.3134832489713916,-0.619917353937592,-43.150090841204445,-4.579791811926826,41.627362280299586,1022.1193896972745
445,4.811463174349755,-5.219244384873407,-6.821495155749023,-0.010660497286864265,0.0012832089180781058,-0.0008631318476206755,-0.4041631144054217,0.23039792305550616,-0.5514001640997678,-41.96175116618914,-6.197679700845966,41.01315471911783,1022.1181166679092
446,4.799751763259135,-5.24369161997694,-6.786067727203127,-0.007929459901826119,-0.004519265696560515,-0.0057747936179512556,-0.41219011081278756,0.12995454986792535,-0.449291737225205,-42.04848767351059,-10.00495170400796,41.406219031918475,1022.1168475637422
447,4.787967068878515,-5.243877857107823,-6.793199950167698,-0.002189446813939928,-0.006452264750432569,-0.00961192654203899,-0.4162236728172501,0.051401772705349,-0.3841482731026303,-40.90773786527157,-14.750505927607838,40.19371342234766,1022.1148493361007
448,4.7879299462005465,-5.275760080744016,-6.77250566307729,0.005143468139365212,-0.004740121115286218,-0.011213265479004081,-0.4290937638104307,-0.023494220668387453,-0.34222067504759046,-39.48954784144089,-18.594964782113024,38.97336721458096,1022.1118864421254
449,4.773512918505479,-5.266380828717292,-6.784300696061323,0.00556219048209122,-0.007166925926126017,-0.009700011662717877,-0.4474884510397187,-0.031610859384279315,-0.3385365833377587,-38.59127385159525,-21.972484603615378,37.612088359715145,1022.1097239923627
450,4.7546003865851025,-5.242691646916475,-6.8236083464943595,0.006748756128042645,-0.004853069760523149,-0.006114950821893957,-0.4592644945949182,-0.0053545091739034545,-0.3710041587801819,-37.707993557077586,-24.657820135099435,36.12440788771359,1022.1085990639597
451,4.717770224957995,-5.23740302260365,-6.8609443389411275,0.00822509703035668,-0.0008133016726698788,-0.0041348403250560765,-0.4941308637763262,0.020979253568753103,-0.42598524914815616,-37.16263033513668,-26.18734858960605,34.632207309426676,1022.1127867381208
452,4.632622536093249,-5.262014064340791,-6.899640540070542,0.005481109621198302,-0.002572837501416856,-0.003263150279174324,-0.5760885902933872,0.02521931674270555,-0.4892583524446259,-37.25916991026807,-27.822719954194433,30.847505279170157,1022.1238194482495
453,4.4972643694422985,-5.282624000530063,-6.968141023667097,0.0032100561766165397,-0.003904985367609321,-0.002115770803024003,-0.6842918181402022,0.01715371114513628,-0.5437084082187176,-37.66864464188693,-32.857271596425896,26.933545325221303,1022.1423217857907
454,4.342437922271657,-5.303920629985865,-7.046747993087294,0.0031014124122870374,-0.004129086493589135,-0.0016843834262693963,-0.7950304381189998,0.002233327477514726,-0.591486940628737,-34.18165496928509,-40.98121880440094,25.91742710669528,1022.1652654002663
455,4.263680406400831,-5.315349544497451,-7.080932502717133,0.003359954751148237,-0.0013492978765662221,-0.0013694625638283194,-0.8451491563182587,0.00972731306717282,-0.6177859386795976,-36.41784509465444,-43.74999922107351,30.86533246770425,1022.1919864430481
456,4.21147867383938,-5.312662250555482,-7.110605978168885,0.0012160556112624007,-0.0017242894311845485,-0.0014907305507444318,-0.8669836383108958,0.02082904808059277,-0.6330612523479818,-44.09843646454996,-41.52754143924214,35.94485247365668,1022.2168682507817
457,4.204749166658229,-5.328612337240774,-7.14555134624391,0.0014479787709795447,-0.0004910476743552705,-0.001136028441527035,-0.8543731760709476,0.006117873357569706,-0.6519613079521487,-44.22958324790271,-43.040802704921035,29.924424706451102,1022.2350280835934
458,4.198029048909805,-5.326777882681239,-7.143725418034111,0.0039771051941181025,0.0036144670001054965,-0.0007322658592361577,-0.852913398449055,0.016829394107479297,-0.6511781806650254,-44.712031275849505,-42.37178507644482,27.448729036745892,1022.2463856983135
459,4.228125649857522,-5.322294784629924,-7.117256558144199,0.0016709793404998232,0.0009740902822795317,-0.0007888108547113173,-0.8188866934127687,0.03594551231335657,-0.6320239419168151,-45.25438956863608,-41.29691711793424,26.764909043952247,1022.2527787564137
460,4.242690259509723,-5.309725819615214,-7.107161829317344,0.0010433158886149533,-0.0005285113441351114,-0.00041171269283641915,-0.7865711007800409,0.051519340259967475,-0.6101202438458561,-44.01125484278899,-39.967066522192376,25.23020005432484,1022.2559607220835
461,4.244866710238333,-5.320960554775949,-7.115441851545712,0.003545031830147278,0.002000909807761379,-0.0023001894591513617,-0.767498878473389,0.04444768728644813,-0.609171312850454,-41.448038831847356,-38.43770709267795,20.11355010236552,1022.2580562638218
462,4.261154069766038,-5.353680953256267,-7.08708161214978,0.0038190158538065648,-0.00014716915256000017,-0.0023885158954033655,-0.7534592739316692,0.02474097047541615,-0.5944860165919912,-39.273077777880474,-35.842026467274934,14.743667167482837,1022.2593588858024
463,4.256267060642357,-5.3431219752565084,-7.069304405365365,0.002836429082654717,-0.00229930785618398,-0.002985327921636411,-0.7361095014086192,0.03886651706753306,-0.5610871931409718,-37.995743005414184,-32.526085065937274,12.222134007756367,1022.2603095963632
464,4.26105797960154,-5.350051573940991,-7.077982907987426,0.003907527299619969,-0.0008509010054454007,-0.004116718737503041,-0.7031694579836827,0.03260223181567463,-0.5492513373482385,-38.33119566522701,-28.92787523485227,11.804843596633402,1022.2627143658501
