Time (s),Accelerometer_X (m/s^2)_kalman,Accelerometer_Y (m/s^2)_kalman,Accelerometer_Z (m/s^2)_kalman,Gyroscope_X (rad/s)_kalman,Gyroscope_Y (rad/s)_kalman,Gyroscope_Z (rad/s)_kalman,Linear Accelerometer_X (m/s^2)_kalman,Linear Accelerometer_Y (m/s^2)_kalman,Linear Accelerometer_Z (m/s^2)_kalman,Magnetometer_X (µT)_kalman,Magnetometer_Y (µT)_kalman,Magnetometer_Z (µT)_kalman,Barometer_X (hPa)_kalman
11,-2.3606330383538,-9.6764327543,-1.4653088745633598,0.0977705535899999,-0.0540172379637255,-0.0260000433109804,0.7596940706960784,-0.4848213355235294,-0.0021123940266666,11.30383959045098,38.11330062274509,24.92030226,1014.963379
12,-3.4645676722593577,-9.54576927879814,0.27787155972238975,-0.24562785918502394,-0.9634664494947979,-0.04147946247629891,-0.5877051812701255,-0.24936139375004418,0.4443484599801238,26.94081571866559,36.12104047002834,9.167550694737121,1014.9630007784372
13,-3.1225127474577627,-9.294404013773356,-0.8651205906598585,-0.16887637363203092,-0.7988465449399916,-0.1413043699795089,-0.1915929249793582,-0.11889125243717713,0.38965510819905164,28.202107814535463,34.855671858619395,10.817731538386766,1014.9628397331882
14,-3.0897780373380366,-9.36691782344036,-1.0429888717896865,-0.18855352200753348,-0.3355798973117943,-0.06984896970515825,-0.1896877252111471,-0.16652854607134732,0.18328580932514504,28.471948423541058,35.320655491026386,6.801957536961701,1014.962783105819
15,-3.018987821742465,-9.277419061440902,-1.4044498936467238,-0.06871487972762405,-0.3641455369531226,-0.04901229490188816,-0.06204165582722562,-0.1290782556548959,0.06747965501030938,28.8908409260218,35.3112928199353,6.0289992400657155,1014.963026793194
16,-3.0707341995272524,-9.53424639995363,-1.722111571046208,0.016885775314824714,-0.1943513335374133,0.003019779203245955,-0.026877732718526677,-0.40690415441837774,-0.3068402318785951,29.382612402555896,35.15987398689435,4.328170883377272,1014.9635193366967
17,-2.9531269046069406,-9.76013543611475,-1.9226216419925373,-0.03618171390526673,-0.010757605265215214,-0.12014689268660816,0.19638392246494538,-0.4548402260816578,-0.46392354533890134,29.523936565275566,35.11193159667918,4.3269323828747535,1014.9635226610565
18,-2.6751483608100313,-9.433496856893516,-1.8254338436127884,0.008391303175646715,-0.00909792658434943,-0.08332138510137355,0.19694648459095515,-0.3883984450260621,-0.4004235600176911,29.176429709816606,35.55450718906007,4.014630504243299,1014.9622737346799
19,-2.9440424659922098,-9.906431413481252,-1.9253464071611155,0.07032851932210157,-0.10251625285837532,-0.04246162075723684,0.13345150036715825,-0.8504263566405424,-0.713384069063413,30.020163334978275,34.971029639544625,3.176205410264069,1014.960860853749
20,-3.215999935442099,-10.206940257988347,-2.142892011939491,0.04709677586519333,0.015417410184508124,-0.12697666698089333,0.22910788516064007,-1.360466011035888,-0.9181454980938769,31.621790717965823,33.33340553013559,3.8082361673800635,1014.9588454268206
21,-3.1583308011610893,-9.521738807720311,-2.016633804643026,0.030321783080755654,-0.03815314828205277,-0.12445955625510226,0.577422795783217,-0.7853281121265872,-0.7722535963573004,32.82447794730912,32.256065493347215,3.9731162344200843,1014.9573429655447
22,-3.8234086013404256,-10.04578224330309,-2.23572279291432,0.09678114292309192,-0.06772280433985178,0.0035407928714077247,0.27390025499536313,-1.4940822515745003,-1.0754514614264803,34.16207417084057,30.73788428166942,3.6043219509307054,1014.954659544271
23,-4.1029250580961465,-10.333149238308263,-2.34468323321441,0.07894888194780371,-0.011991819791507291,-0.07626867755170202,0.2677354721105336,-2.0137566547223136,-1.1709665121753228,35.28613885259793,29.27704646460591,4.093564272648076,1014.9527048480306
24,-4.436165337832696,-9.908895329768052,-2.1602251962841863,0.06458297871132655,0.015545083409850228,-0.09001807280585186,0.24623640684511336,-1.6940835396139982,-0.8877498157823305,36.18793073431876,28.04729135663625,4.40891914809421,1014.9512796929849
25,-4.570547785884028,-9.969278836338532,-2.423404382420147,0.1700544054474536,-0.034054658056840964,0.0352754545871371,0.4263223921558702,-1.9635216440026981,-1.3593257529896545,37.10735632897995,26.543490881543917,3.6660794442694207,1014.950157696189
26,-4.820388943248101,-10.324582662055455,-2.3098503139969284,0.03326310710477995,-0.011209312642530285,-0.05864250498422813,0.2415471642309165,-2.4773741419514415,-1.226426975384482,37.26899297058336,25.848481862946173,4.278223502382049,1014.9488237693164
27,-4.893468710074389,-10.427776067644666,-1.7069151755306176,0.1442098434700834,-0.058949194067125926,0.006264752948456298,0.11017060592348413,-2.4169913495432613,-0.5647005916164166,36.701053100351096,26.42337957418202,5.919832573246987,1014.947809024516
28,-4.641822693702331,-10.006294561637118,-2.0872814597410123,0.14619830183475124,0.04680993079235442,0.056005043085198554,0.4836088966219354,-2.14933262630328,-1.0598925187986392,37.38311753702804,25.639631562870125,5.121358054668734,1014.9458111074181
29,-4.937673219871312,-10.425274372597865,-2.1392035266113516,0.036913833902211854,0.05555925083357413,-0.03606560262882982,0.288018781829882,-2.6535354582760666,-1.1220963223655551,37.73996063898341,24.999879382010974,5.412654227880979,1014.9442500719854
30,-5.194233336822208,-10.22057794087309,-1.9527651408885967,0.1412885989349564,0.12016269649443061,0.0050205682662662,0.1453207816791603,-2.4592428393803143,-0.6998170211963606,38.006800922407805,24.627841643163407,5.776490195561091,1014.9418534609458
31,-4.964090572732575,-10.063447824741207,-2.4745019174966085,0.20264018430820674,0.05349031642204927,0.10707638434766437,0.5297482173512086,-2.530593066635382,-1.315171033097791,38.64421102547295,23.643390987380673,5.057346853980556,1014.9396920695077
32,-5.156761527320308,-10.529474112603399,-2.5504851483552624,0.08871503938182981,0.04044718736583644,-0.035001457013642184,0.37631854593229724,-2.9064825077007956,-1.4172447394060064,38.48800458408363,23.879752634916496,4.83253513143818,1014.9377231439039
33,-5.3082840060958665,-10.291135098753308,-2.2605323089082314,0.16378776352377583,0.1094747501487974,-0.030642806704279803,0.16574343339289624,-2.6614427958570395,-1.022169839947405,38.32759662745531,23.95316834723903,4.979380324645914,1014.9362861408888
34,-5.018265653391079,-10.125266126305503,-2.7947625661904225,0.17743565357004337,-0.0130821589537026,0.08523147508313741,0.5782761094016665,-2.654861104123389,-1.750259994496672,38.734065132796815,23.214134362359374,3.634701321678458,1014.93466003063
35,-5.172311539737809,-10.474353884850517,-2.5318187318650454,0.07355669922607397,-0.015841019625017258,-0.0466221666497999,0.3757417608511523,-2.881757267504261,-1.3786046684771476,38.37234344139245,23.67696819901772,3.6635044605145657,1014.9334732253553
36,-5.482240378022808,-10.32720218811539,-2.3961847901023754,0.16272809620889245,0.033254625915487696,-0.023335388045397292,0.12811618460198446,-2.6501487929035137,-1.1230839136355293,38.45383961835096,23.811199992991995,3.81695035013173,1014.9323803822239
37,-5.158346631688691,-10.112349372210309,-2.898542370729575,0.21523506906660966,-0.024423067565619128,0.10538491068388837,0.47378468179303734,-2.718381283615491,-1.8339755568644338,38.8185368715585,23.207067299216938,2.751953244819022,1014.9305110677936
38,-5.277554135919638,-10.562636019870368,-2.6431582440649337,0.09360456021288605,0.018964664023802945,-0.03228403795102465,0.3729595424634463,-3.081965125799147,-1.545171528164266,38.63340673160815,23.23573792113447,3.242781740988471,1014.9281161144285
39,-5.317381482163753,-10.61365509532479,-2.2062392429798625,0.22178210587714944,-0.04499411697607438,0.011220906646113936,0.2449392956455222,-3.024317068151633,-0.7978388113171774,38.40885036052425,23.621574313823086,3.8711368531334327,1014.925914850587
40,-4.921653156353122,-10.222765937342839,-2.405954271823757,0.18466005083376946,0.11610470844737508,0.0635505481292235,0.7593667022656132,-2.776953238232634,-1.377532425982574,38.7388091869601,23.20312934784037,2.579252494948265,1014.9237208172168
41,-4.815359491458194,-10.690836912225095,-2.106570937044803,0.176401642889461,0.16742975313241842,0.04550924899754216,0.7269650245247314,-3.1555799639830457,-0.9428506706957165,38.33427849584369,23.798527150973193,3.5117012681051696,1014.9215320609362
42,-5.038236662448762,-10.910163760476733,-2.2325136770691265,0.24622182782985358,-0.03702137119120666,0.05626307730705068,0.4243237942502329,-3.311521117056309,-1.0978184830795001,38.056697332889364,24.23936568995339,3.2282418647395237,1014.9186154379878
43,-4.807346178827789,-10.96135037470691,-2.216484544443815,0.2745538460695169,0.18940251966266905,-0.05236645885164495,0.6776439037379576,-3.3685855840734393,-1.249961693922655,38.01769415397799,24.215758844618446,2.395103936000413,1014.9163219635706
44,-4.4183763351574825,-10.351904853216519,-1.8446524497020658,0.15146548744544552,0.002451476616894932,0.05532972158702553,0.9236214377021845,-2.673261245709444,-0.800148529478366,37.48363843232495,24.860573396020214,3.4613392594011563,1014.9139473003046
45,-4.692060341753378,-10.689032709301724,-1.9704615574224609,0.20510672447344078,0.05157250087829105,0.08986572618288653,0.5980112601640795,-3.0446003038166776,-0.9774932218131354,37.48518337856613,25.27003563227543,2.8055899845530496,1014.9117195110497
46,-4.675989336044205,-11.033625023256585,-1.987269452924211,0.07958352222379228,0.08518968685491013,0.011281387679543578,0.5972343610876503,-3.2612642742958355,-0.9851763161314399,37.271092857861404,25.64560630749247,2.606148577082304,1014.9099903732293
47,-4.744083268887827,-10.728459748475935,-1.3992492253761344,0.13639221397728632,0.0416874242856057,0.04212049029582995,0.5366573436590093,-2.7973625473871206,-0.240523717196373,37.42732625500149,26.155995801265124,2.8862460411578645,1014.907986523775
48,-4.320570538890455,-10.429984357851941,-1.8721473858244784,0.11583051995400787,0.05049842284425371,0.08706182449270905,1.0413580004457232,-2.7696370374398103,-0.9061748288026299,37.880273961930726,25.695688366383386,1.6414535410023474,1014.9065032246705
49,-4.415510723870188,-10.726128739578071,-1.7041123569843792,0.14795574481724952,0.07105279085684646,0.10756861338380024,0.8511090445803591,-2.9808073700542628,-0.7367586826119971,37.29321385178172,26.415656102165645,1.1000616248505977,1014.904246008824
50,-4.708169766628191,-11.040318205361976,-1.9241197462627018,0.22877996505884446,-0.012640620203546837,0.09858268901416774,0.6238421749430022,-3.3939416222648853,-0.9716037919204444,37.50880382251963,26.02693199086061,0.37086241894423055,1014.9007847650535
51,-4.861066466194295,-11.23998509927341,-1.947558393521152,0.11381993818727447,0.15855852794208264,-0.020198472697895375,0.4774414294095727,-3.540685248622116,-1.083388636295366,37.25393129506134,26.176929148704385,-0.6634910324089359,1014.8982585977884
52,-4.420196777610762,-10.507018929942404,-1.3297018301837153,0.06109568574189055,0.10936358289227725,0.04810498558581866,0.94176464207609,-2.7958417029490956,-0.36200610895535934,37.233773372090084,26.576856262403666,-0.89429684886828,1014.8962292929848
53,-4.279842039541116,-10.93551315987079,-1.8638350965734034,0.20306028232587237,0.054812506005694775,0.20809844748294654,1.0359474498133447,-3.244894084556027,-1.2038895526081383,37.03420704706191,26.789730422266636,-2.5969212803160606,1014.8945215564179
54,-4.193674163759791,-11.248104205464145,-1.7085130024950492,0.09588682376964225,0.11565651253763252,0.07761439534808279,1.0014222144708174,-3.396238266032207,-0.9383691971692025,36.53328517446267,27.617033956246356,-2.275401579952294,1014.8932751754928
55,-4.27778855370245,-11.380350182225003,-1.9626271426279143,0.22198516614657007,0.05712859885884564,0.11311897058524642,0.7526853480442324,-3.474885473927606,-1.0091299098545248,35.706509232814945,28.624754469405058,-1.833085242950339,1014.892756968468
56,-4.154478697913766,-11.616397362055931,-2.0939203416725305,0.20707227465005354,0.2242067617409389,-0.0465635247750891,1.0410156031427729,-3.6054200091882227,-1.1866356913066747,35.85251569242641,28.017768727778016,-1.5673750003994091,1014.8925746215435
57,-3.994406054829717,-10.915045314454535,-2.019508813629929,0.0819304233231282,0.03145587655754034,0.13943129379116362,0.9342012406380754,-3.0381544181155764,-1.1872286995729426,35.111389161610525,27.93034958213188,-1.5569865992157366,1014.8926374000271
58,-4.144610253235595,-11.356186385084806,-2.0129688550998073,0.2070130609103576,0.04516889465598522,0.18949230046667878,0.8237672765829323,-3.5841771992250684,-1.2541161927999895,34.640414166109,27.218924556417083,-3.441022763349178,1014.892291492006
59,-4.3414991400575875,-11.606504080483358,-2.108505214665504,0.08027151387352191,0.06766130766223552,0.022702710567517576,0.5662450219697215,-3.7159123756564694,-1.291530963264896,33.87590272513173,27.630529888408102,-3.6735852164255136,1014.8912353184553
60,-4.257099186581202,-10.863969920311783,-1.5731420665273155,0.1753583235847046,0.06702163730067019,0.026984322007279033,0.5773733423817984,-2.904443241769198,-0.6175332137326375,33.362448036117634,28.79904911393232,-4.059671236761758,1014.8900935522713
61,-4.065777796784559,-11.035847441523055,-2.087775800817201,0.1996564424850267,0.015856872336857203,0.16401953347433423,0.8522564512545154,-3.193782313956441,-1.3175652141755843,33.68335934949965,28.449116048380645,-5.293274093447321,1014.8879410685317
62,-4.17972975090595,-11.31444331221939,-1.814344853951396,0.13310525422619818,0.12231020663933674,0.09013869902105973,0.6769464748479452,-3.325375421634464,-1.0171595906087876,33.05543191263055,29.021358058846417,-5.362949965828488,1014.8857930379769
63,-4.365083594437915,-11.398464030514095,-1.9048686658095781,0.20945380572382505,-0.004299952263050369,0.10129703057575572,0.536334278944979,-3.431563134242092,-0.9380972377694209,33.900876552596415,28.6014156973265,-4.192933307061093,1014.8817312290718
64,-3.93953186139442,-11.295569301046317,-1.6606396366639395,0.1732916212271772,0.19186908367749833,0.04448431464741119,1.1317839530475284,-3.2032720810893416,-1.0532559070391392,33.93860663706465,28.199019551603296,-5.4317062339233875,1014.8781483555048
65,-3.776138291672632,-11.001296672877093,-1.9322191877050705,0.14673953575572712,0.012044082091160618,0.07723590032201813,1.1056524435854034,-3.04790928985706,-1.2468389381636376,33.248787582595945,28.737272789917483,-5.382177761959544,1014.8732044007858
66,-3.427043031634959,-11.433857115046731,-1.811456487669585,0.24487792010861265,0.05969367620522658,0.13511111629874462,1.2748075994404457,-3.408276181009356,-1.2807435213529321,32.281356180353875,29.48818809235914,-5.749937956259487,1014.8686686398698
67,-3.312043097612895,-11.664279398283472,-2.024443623603589,0.18773939330029632,0.1494004567025896,0.017284440998044284,1.2654666043855478,-3.4515032224265774,-1.5644918625499595,32.15786796963558,29.984752278352957,-5.792964868587882,1014.8649665164337
68,-2.9761408757033916,-10.871758587430639,-1.9579865660255058,0.11992475546411117,0.06767559912059941,0.0693651788158944,1.5657500919580567,-2.6203665027133862,-1.3774120561615986,32.37234215980254,30.33717837468966,-5.18880167523081,1014.8620378835792
69,-2.9543812376750513,-11.195344162366494,-2.139223946606422,0.24801460641007556,0.0444032326239725,0.10763606481416294,1.4953925194664284,-2.959084069043837,-1.633730928556318,32.24801215462026,30.741366744228397,-5.59080306554685,1014.8591791219969
70,-2.8150469858503926,-11.634194551354152,-2.0770318885450947,0.099251442373784,0.06952215647019666,0.0580505000447195,1.417151310254106,-3.1975388289587636,-1.5400126899271396,31.49388462704931,31.700776139005107,-5.412372269097107,1014.8570926726144
71,-2.7711765303256035,-11.611609724851892,-1.651589270037214,0.22401905952228257,0.09922823789889229,0.035163324659939835,1.4678924464550092,-3.188610600216996,-0.9890603749800847,31.63529302317051,31.658941829532868,-4.68463627740525,1014.8555698904934
72,-2.39551622584865,-11.304712335659577,-1.931378675621257,0.23609703711413785,0.03071489793505179,0.1320057286724827,1.8321417715449613,-2.8996628874373216,-1.4738844726538052,31.529770493534844,31.3140375346468,-5.194428819301077,1014.8544584974217
73,-2.1266367601954363,-11.74926316014798,-1.8180493191934566,0.18827638928259804,0.08765230812472921,-0.03684042585189193,1.8558988941928374,-3.164253560773321,-1.316660406322311,30.83327837510241,32.17165233221198,-5.072968188735074,1014.8536473540921
74,-2.2017531454416277,-11.754335839984329,-1.5625359878147236,0.3353915166089052,0.02097122034422226,-0.028814935220224977,1.3863562494759656,-3.0476921688648324,-0.8469097279505345,29.152498050102807,33.632933934603045,-5.318143264786919,1014.8530553461717
75,-1.7417428149354668,-11.450736943751291,-1.807010845345273,0.2252372264211155,0.16029683862519184,-0.20447154661027478,1.8000819471703386,-2.689211577639533,-1.464001867378219,28.70020128421605,33.754660869405186,-5.666265580848314,1014.8524995413235
76,-1.8176423867497462,-11.29132295171403,-1.6625692026555443,0.19418452291733798,0.11477899418155532,-0.1055205457257926,1.5186950079660009,-2.475467278761769,-1.2161622362777311,27.88386267324499,34.31352168677063,-4.957858841994339,1014.8520938906075
77,-1.6942234739905286,-11.70746740714823,-1.763807085600576,0.3393213619506259,-0.083426910797926,-0.01992276481078159,1.5010405976721486,-2.8775622263771155,-1.3482109347314972,27.2050589805553,34.647812051093474,-5.323165282524522,1014.8517359631799
78,-1.6231064152634924,-11.894561294376555,-1.7829354474157701,0.23693023870139046,0.11415976110496828,-0.13194989885490144,1.6055305831139166,-3.012018376135437,-1.460619369008239,27.253294474639596,34.48083672832375,-5.729039664820363,1014.8514747320702
79,-1.3412850257320825,-11.201999039730856,-1.703816939765242,0.16490083806362793,-0.08823545669263488,-0.006062596283713667,1.856126068849688,-2.322080517411017,-1.327169939438452,27.140775225554556,34.58259762926113,-5.337771476327667,1014.851325408068
80,-0.5810125971103057,-11.700892914247671,-1.712898809963347,0.32789809432007333,0.07599875614652227,-0.1336717200468675,2.019184108765876,-2.7889475765990555,-1.5032011599442143,24.449253253725182,35.6983244167859,-5.872944697183209,1014.8520406714749
81,1.6876468726565566,-11.37147297823252,-1.5938263118713292,0.21156121335083147,0.18003968066580478,-0.3403503372198142,2.5220361327508742,-2.5114207172499006,-1.4762774622201216,16.66355282997912,37.52262963626762,-5.3987880273698945,1014.853387218788
82,2.69489708359168,-10.160234864634976,-1.3113100930026742,0.20658443897536333,0.16962360284340297,-0.3046532974663833,1.7832497063212234,-1.5065487165628693,-1.0560126085256,8.372414339266065,39.16457347052101,-4.059185983278473,1014.8546793168425
83,4.2784198216595115,-9.643104922048696,-1.3189286009928913,0.21503384191664968,0.2115756310760794,-0.10229376501176468,2.154491078717668,-1.4221074388648858,-1.127845064828833,2.1131699218576987,40.259608544222424,-4.200947823017499,1014.8562199321218
84,5.641810568887739,-9.326630206811737,-1.1725995779293217,0.16058021426020438,0.07154395802279778,-0.20832163468768494,2.421364744987408,-1.2820209615155391,-0.9541838751455276,-3.080072358659053,40.997769121898614,-3.6329866848577095,1014.8573443406133
85,6.1807095104421075,-9.037162642795035,-0.7756907100403871,0.21593653680897995,0.14395084303326516,-0.14916246926824303,2.0953265828047067,-1.1611852326028926,-0.4524117326824991,-7.243215438279896,41.57607633502832,-3.137525710532721,1014.8581649831661
86,6.537555295269225,-8.139855924809225,-1.203180403959215,0.09749825542113141,0.17481397665001816,-0.0816581781607962,2.028721628680952,-0.42231283989346613,-0.9851562864317825,-9.558663339424877,42.12587011707677,-3.93889087714127,1014.8594647092492
87,7.106749700855794,-8.16965841132711,-1.0677206382597844,0.13840785543275547,0.09836266050062197,-0.12575561523528356,2.002563697961549,-0.7153034924690359,-0.7992298887569455,-12.681609208425627,42.134072175329344,-3.6387002432997426,1014.8605165059301
88,7.637985732041536,-8.086852854297701,-1.0403131296556891,0.22777190223382604,0.19423268251150055,-0.053938875882097795,2.1407743784787394,-0.7892304622981563,-0.7930646690544975,-14.717131637628333,42.22530198524207,-3.8169741610042727,1014.861407614593
89,8.066004847540443,-7.718885466065347,-0.913331055556476,0.018681317873746467,0.2779492182914436,-0.15694565005973465,2.392426729884293,-0.42878261895917985,-0.8013740431684908,-15.683415036364133,42.510782933895314,-4.063342474663166,1014.8621507833739
90,7.697022259451752,-7.458242349428877,-0.8003526212074957,0.10392561096254406,0.20288920265826307,-0.06854060362413703,1.7877797405720068,-0.2672351439770396,-0.617153554103471,-16.832289169415432,42.86957312433665,-3.804791250339713,1014.8627859791509
91,8.156718713422801,-7.5643451593203155,-1.0483902588857774,0.18820068124693234,0.2006157532313543,-0.009881860888345813,2.1512734530218642,-0.4425582408197317,-0.8881380192690476,-17.47904121549881,42.91670235163808,-3.956535250832473,1014.8632290409709
92,8.47769525456149,-7.670549564215081,-1.042457700835234,0.03232765398452292,0.21459438895937438,-0.15258464424747156,2.3199138244112647,-0.55020265151031,-0.8502494691990523,-18.13288804775355,42.885277538814336,-3.952601692187632,1014.8635729387601
93,7.774918715215748,-7.1955108931604155,-0.8763775663148189,0.13116270922350923,0.19173684283511433,-0.12152447715289917,1.514514328291217,-0.06997725543458089,-0.5644724524459555,-18.948065491327775,42.794486964176926,-3.9944799263039683,1014.8641537911599
94,8.276556637740885,-7.366305348213249,-1.0670981094122736,0.12479402372083297,0.22357941395591718,0.03378507717472916,2.001239203271414,-0.2734790412928857,-0.8223346151913263,-18.81213258921936,42.80286394493589,-4.71869116535345,1014.8653814374061
95,8.599578565980776,-7.56823981236644,-0.947895841531253,0.08596945161205333,0.1433265787885507,-0.10545213624462867,2.2643954225793226,-0.5081109554465463,-0.7003992069162277,-19.094563144317856,42.82386766065661,-4.8636690388629935,1014.8664422226822
96,8.219471069439521,-7.529845804000669,-0.7930204885022533,0.10847005911854787,0.15254311159234957,-0.08291713414352814,1.7132621519985918,-0.29936716124095697,-0.5253837635733849,-19.55367885942882,42.78075691099507,-4.610247193272387,1014.8681852104022
97,8.39665264500846,-7.237881819680063,-1.1234124166001749,0.10186606686454212,0.2274504847433867,-0.0027707892933563766,2.1858459175459926,-0.1493498636969905,-0.742863002007031,-18.63643651936471,43.03506636573668,-4.788939205840514,1014.8698901094139
98,8.63394701946923,-7.5040168561871745,-1.014849357368003,0.13216351427962075,0.09645433183334717,-0.12428960022040955,2.3080812714989083,-0.4909719220028787,-0.5824073605540685,-19.101718332852826,42.97688984668063,-3.8157928232333727,1014.871134419367
99,8.56469625730196,-7.63968582031569,-0.61024798364818,0.1766453683251341,0.2196137061326328,-0.08326202277770772,2.217904858820291,-0.5709051307843975,-0.06848378318605508,-19.063917929124536,43.120819476343065,-3.5834128952436055,1014.8720015075124
100,8.371720914348737,-6.950535980718546,-1.0055708173655422,0.05796503104331788,0.22432950980783864,-0.03514286402074463,2.106566206053603,0.11925792131247548,-0.5652271573819456,-18.769694188958272,43.12629999348332,-4.5336125998704535,1014.8721602222573
101,8.506203756402893,-7.158874297791028,-0.9936324506878788,0.12424601589950578,0.1377294667765478,-0.05990931260861947,2.1324918932280426,-0.277264902483939,-0.4909820398532292,-19.755710037609585,42.72686741640799,-4.151595427896584,1014.8720493981663
102,8.655137389466999,-7.359084807481666,-0.8714696003923165,0.2167057710947457,0.22868906103936826,-0.07210350536976448,2.147345536437743,-0.4668267626607926,-0.2858814834954472,-20.245054826419594,42.52369621352439,-4.085054093159023,1014.8718242504747
103,8.777976503996644,-6.923089407790981,-0.952992924513735,0.06564804166281507,0.2574480215582191,-0.15027531793968965,2.283477706732061,-0.0036810554929447847,-0.45165135374912035,-20.012866896145574,42.551136159751856,-4.477716348066553,1014.8713095352238
104,8.477987714961946,-6.899435364188414,-0.9469060965494622,0.17828966291588993,0.10299300087239208,-0.05708192904329841,1.9316521208911144,-0.10538293042881568,-0.35382144397505655,-20.923631664908516,42.20192584764717,-4.451649655556768,1014.8708101419502
105,8.706009293309073,-7.287711828586739,-0.920249510194597,0.16488977711049913,0.27756865839006006,0.012921556118940511,2.0779567392034743,-0.4364521422444369,-0.330392658764193,-21.285950432573188,42.03614195882835,-4.748972516562591,1014.8704456628717
106,8.880430753241997,-7.1159272194538685,-0.8638433257269975,-0.011239174069110902,0.3351282892575334,-0.16662614628255362,2.4895855805373817,-0.10481158566663118,-0.24906226110965174,-19.836980651400623,42.53007918320368,-4.41106212001079,1014.8703755133339
107,8.34448248566197,-6.975033827584871,-0.7337376881963276,0.090742413872526,0.23862040396790102,-0.11524554469256751,1.941032748391074,-0.051210200814164435,-0.09481748623378489,-20.22626948707713,42.46624793800885,-4.098282033700563,1014.8705201783831
108,8.68943383090661,-7.394796448961687,-0.8410759562044974,0.12633146909747867,0.2593020542450862,-0.0005807694237499605,2.189783945415051,-0.44779081989147435,-0.2797269480005703,-20.347273347871436,42.31052987328612,-4.374005366919763,1014.8706257612706
109,8.840808402033185,-7.486953606239917,-0.9476784163143583,0.05927229037205067,0.22630404696251716,-0.16861346359448365,2.4506302923983525,-0.5383593468183646,-0.27733315277023574,-19.988109180184185,42.45148093448155,-3.6979089595273127,1014.8713004058259
110,8.359901113037969,-7.046524787208496,-0.8947937042081949,0.0925661277350947,0.14592892673157945,-0.087823351237276,1.8297124887735015,0.0027078408434393353,-0.09741071762731834,-20.362496143295957,42.44149862406868,-3.1943953373062137,1014.8719578564092
111,8.549709987975252,-7.19385739646948,-1.0390733250852313,0.09334623650797177,0.27527500190761595,0.038283223646532555,2.193444517475418,-0.19213890708303186,-0.28927838417042695,-19.774163963402476,42.638648256685606,-3.8639506483440904,1014.8724787563776
112,8.789735434446277,-7.397684493115345,-0.9743960832501655,0.0814079186119329,0.15907675493431778,-0.10258399627135073,2.440245747242533,-0.48955901499269705,-0.22857526533573774,-19.939014863937714,42.512241391238256,-3.720957666572537,1014.8728178682396
113,8.45772394685157,-7.332358232245462,-0.685046865724391,0.1263888880554127,0.19480700495785924,-0.05166843858585851,1.9919454089476278,-0.4072736627447002,0.18360523834405085,-19.89011462022526,42.164109110413584,-3.8058886809477643,1014.8725293770012
114,8.405783695301707,-6.973021569664612,-1.0031703493957995,0.07308920160200075,0.2303632991161158,-0.0032378362097722907,2.0183575475196194,0.02250809515170854,-0.20840698518909584,-19.06817039789777,41.06596316893114,-4.403097848933631,1014.8723188234629
115,8.541844124340933,-7.141523175683154,-0.9212726073675147,0.12138401306154456,0.08455394169701808,-0.052107886831361236,2.0936934441969606,-0.2951617084136741,-0.14919856445533972,-19.74023783145603,41.16361939915921,-4.041790151134574,1014.872165152271
116,8.71077191430597,-7.358290144356661,-0.9805910759296539,0.2015702294097588,0.22848593972893727,0.003741975705019017,2.136543001134883,-0.49887125900994267,-0.16643766908623403,-20.159386741326365,41.123351801035646,-3.89351021703491,1014.8718468671165
117,8.830964350297158,-7.052010745433757,-1.057410120281758,-0.006703915618204215,0.2781736792065719,-0.13105020779480425,2.346016568536743,-0.11999495688302908,-0.27620587863017154,-19.515592445183977,41.628652482525474,-3.802469413874279,1014.8716145686735
118,8.266303004364238,-6.935552856900335,-1.0043330411480298,0.05015535334227115,0.183844051739547,-0.04571771371143199,1.7270570055338603,-0.13497563226291426,-0.19175971904753442,-20.345260629350765,41.65379079059385,-3.5120112713601386,1014.8718367536052
119,8.642589998745992,-7.224797265493033,-1.215179013418409,0.13827431715927693,0.2451954853904269,0.019553639012015345,2.0334051184513258,-0.370103947576341,-0.5072191788664346,-20.408356372032493,41.876952307000074,-3.821022180656823,1014.8731324893624
120,8.805635698240295,-7.246122082093475,-1.208921194769064,0.004019634946081263,0.2768953004485792,-0.14975217118341969,2.250486324680904,-0.386769200674687,-0.47810774322201505,-20.277073532094363,42.1348718828928,-3.5999281827026257,1014.8744077646344
121,8.138479875361591,-6.726655476782188,-1.0329269971909436,0.08878384931839921,0.16469131170537304,-0.09441199360133878,1.5430098176953,0.07510529041467906,-0.13291334097899032,-20.584376462298838,42.09376494967534,-2.7473269873365704,1014.8766166254081
122,8.560559820116964,-7.13127757148235,-1.068244293865081,0.09738285640593615,0.25708968763608075,0.04765693399123527,2.015146542975686,-0.2747890842586264,-0.3105829262958678,-20.22766573929287,42.19901550012666,-3.124480383782051,1014.8782287487227
123,8.763061831624055,-7.233412727020604,-1.205760763838908,0.07120899361388547,0.1252917842132812,-0.11484675611423323,2.2347223432416006,-0.46552707564594914,-0.42356610236996123,-20.065883152280517,41.891075756318735,-2.537736648444933,1014.8794053469095
124,8.423364193082282,-7.3119834793679495,-0.9744185935198934,0.0970473658594743,0.19767345755172105,-0.04622871985286198,1.8545535311093104,-0.47987565535779636,-0.03681766334486625,-19.917971682920165,42.12390656448101,-1.8389819109867491,1014.8800166166972
125,8.411351372547717,-6.941292831661257,-1.4440376822053207,0.06553819381118281,0.24777082101555042,-0.00970272068499018,1.9523540929899856,-0.00408119643121907,-0.6152550464320916,-19.34142176963647,42.52038718548648,-2.113277286870953,1014.8804627481546
126,8.573923397859097,-7.180878233259322,-1.3466948081394414,0.09273760086939252,0.1509932798125484,-0.05666268483431167,2.0728889260849197,-0.4029275673716939,-0.47065488127482097,-20.11843846942939,42.348806601528395,-1.6048393871245692,1014.8808502202
127,8.599572731650374,-7.374387218705407,-1.2308702701966576,0.15648747390807277,0.2737823389651654,-0.004382108789180404,2.0764575790808264,-0.49919467736546413,-0.27229837684290314,-19.74974834798691,42.331272109270515,-1.3079980331712187,1014.8811535461376
128,8.874095639080632,-7.215721023679402,-1.270185110026635,-0.012712974186218362,0.29974253333633444,-0.11999402288128166,2.26505382527519,-0.17267367973471826,-0.4095872468930747,-19.278655836657776,42.23560840813201,-1.6793588030724544,1014.8817666531961
129,8.264727278247557,-7.007991372776815,-1.081696959522984,0.05608789532520006,0.17571794072986774,-0.03415232371945158,1.881245547790484,-0.18952233522585135,-0.14596405406704838,-19.438791043068353,42.33132394003584,-1.183970573516463,1014.8833271691672
130,8.617364809465615,-7.383237001533909,-1.2466672536497154,0.09363227525676779,0.28838642862863906,0.007105501848617121,2.1472421646188304,-0.5091026275333493,-0.3709860864614922,-19.560459440095507,42.314866644163644,-1.5328848652138158,1014.884610365472
131,8.80689066260006,-7.437352148314013,-1.1380025490712056,0.002416926267014924,0.24157519708866296,-0.14468137742651632,2.311333742492929,-0.6407952920294103,-0.29849371149507087,-19.457167107595602,42.18418888070863,-0.593731321078971,1014.886433010699
132,8.180671426421346,-6.926044656121956,-0.9470310015472829,0.051019022389419355,0.19244305562673253,-0.09063660635453387,1.6900791901957102,-0.08415851074668113,0.09954457975958131,-19.25471652982292,42.50427967436551,0.24422485077650324,1014.8879283224413
133,8.57797815497546,-7.2064910750563,-1.1098822736145875,0.08702238161965528,0.2442560284337142,0.023739275147490982,2.1336708881061246,-0.2956241000986574,-0.258431572655516,-18.996730610847163,42.72443510715265,-0.47357796915614103,1014.8888546009823
134,8.755327256007353,-7.318161374676905,-0.9462189634729563,0.0704252228585971,0.20208597453532315,-0.08059471295789072,2.3028574622941704,-0.5107800474384014,-0.12336658606734491,-19.423373962087332,42.69576164142423,-0.11630552716650694,1014.8890154517255
135,8.554006199540046,-7.482802975227709,-0.7573840692804092,0.13719934130831196,0.24725578678774784,-0.0728887694433478,2.0928931958433377,-0.5707462506227989,0.19613126039729623,-19.182536449255075,42.87156409212976,0.7124092792738546,1014.8879992721762
136,8.47936304941616,-6.925521461851383,-1.0444470062077238,0.08014811394656732,0.2862941306179902,-0.023293669720475432,2.0456361982744315,0.06664805574776167,-0.24043770189035152,-18.781828250828458,43.1232328304605,0.041483114315088776,1014.8851139303033
137,8.640585798876591,-7.052148578365356,-1.1434045068860255,0.12286621837488486,0.19577978503835364,-0.0490248512728608,2.159086929637868,-0.24474029652159107,-0.30398875735906833,-19.762580481205834,42.727168176662694,0.22963557410647517,1014.8826166251098
138,8.79105437679373,-7.346535203703556,-1.0659070375006516,0.1695865812889824,0.28432279152205525,-0.0012584321296677317,2.2671054450334966,-0.4410139276072996,-0.22345509245337317,-19.662293074195308,42.86687578899192,0.3210973961808823,1014.8802169287586
139,8.943119719498785,-7.422316764770162,-0.9545378745653751,0.0027511908616759395,0.32940167824645444,-0.16006617787961452,2.502050694322484,-0.3986447817434761,-0.09902591771627936,-18.989049832512396,43.509894827892566,0.5756669271679449,1014.8784655252833
140,8.226660007690453,-6.867196660511396,-0.7837577400149264,0.06842736076045286,0.2004787590586846,-0.04895730061275376,1.7402860689873987,0.012978168898477138,0.07162056545527481,-19.440492314608758,43.39027517724249,0.8668607893640781,1014.8771872743364
141,8.612386199961266,-7.312529456727017,-0.9822923574103268,0.16087443728343445,0.19549497053885778,0.007209802357666842,2.12424089257886,-0.411282675809175,-0.2257537915513765,-19.454208446091336,43.360681047215984,0.44253663617690153,1014.8762954145673
142,8.821553080546456,-7.427046350787116,-0.9275098087910075,0.09848733908676471,0.2054287522480495,-0.11394317360135225,2.4314332792330235,-0.5067051871178079,-0.2058794695705565,-19.059615879259628,43.44030200942915,0.5753506504481453,1014.875891959345
143,8.194412930674261,-7.2713780929404725,-0.5906890616298219,0.14355543681557886,0.1735719966913381,-0.07538763697986484,1.8315776914381054,-0.25955645620188483,0.250415206833436,-18.773089676932507,43.59365567493486,0.8423609991520241,1014.8753500369672
144,8.353554584273745,-7.342189799244355,-1.0036994132789003,0.15110241891119428,0.16815864266190836,0.054401583028216266,2.116538277517818,-0.2161701798031047,-0.1884399757608628,-18.164932555140606,43.84977668170426,0.1748143387910005,1014.8749545182861
145,8.654490812430087,-7.500675760823091,-0.9873242965479457,0.11680321738726578,0.13332135873740553,-0.0749863117431662,2.4186672899121815,-0.4834295776964305,-0.1794034266484946,-18.771822309706817,43.80681572003346,-0.17299911837584697,1014.8746039856611
146,8.570026537684429,-7.547752407987217,-0.5455209061903543,0.19708381522511725,0.20969300370712327,-0.006461577037285185,2.158113933839369,-0.5653222458703984,0.38215194531797847,-20.0675414581126,43.666605305191226,-0.09763441125093573,1014.8744100173748
147,8.707039517761668,-6.99497652774148,-1.0376566964297567,0.08603596780786102,0.18312312861113872,-0.0792989784847603,2.3021169657175076,0.1924350060125004,-0.2370800499638972,-19.279925636389322,43.6609232060891,-0.9276270692993659,1014.8745569776602
148,8.526308865245468,-7.025938055738655,-0.9325549885172436,0.10367322103127061,0.12363717202775365,-0.0309096512009358,2.143070719146511,-0.0661330331447611,-0.15815452028050817,-20.115182894091415,42.88368956375557,-1.4105925096287213,1014.8747674353845
149,8.780496680791781,-7.339282649935968,-0.910576141935505,0.17961967910492638,0.21642318966485447,0.018553922368923927,2.3237594291415813,-0.41795380217371025,-0.2379334475304699,-20.30164259519942,42.73300218570638,-1.8426152681720285,1014.877538580184
150,8.957992880839463,-7.196042375954279,-0.9067235447093532,-0.021690314247102743,0.2889783304285803,-0.147970741446436,2.4143851611409524,-0.15194135940007464,-0.1940561531099214,-19.95753619431019,42.837306713122366,-1.5822977937222507,1014.8819109017329
151,8.262617406694284,-6.998046627230867,-0.9162456375704799,0.08109513765451072,0.17376403907161025,-0.06981063280255616,1.831493587189784,-0.12232623203588903,-0.10052200323184843,-20.264681197427947,42.75133873846446,-0.908689967971822,1014.8870187717782
152,8.653373666820288,-7.469200460904714,-1.1937328298237593,0.1706859509309568,0.1471438237554401,-0.0006572607461877988,2.3071969938841494,-0.49074479958298833,-0.43665405893605,-19.869683403578964,42.88820074879625,-1.6211252157619205,1014.8915093699875
153,8.91199808089501,-7.612006722843745,-1.0844608457615124,0.03725423506548689,0.2606114262759792,-0.15192502790174098,2.7140599799123537,-0.5040341516217621,-0.47284207845101095,-18.960686685489108,43.10472846566236,-2.5356613041170055,1014.8968891608363
154,8.17523414341758,-7.133997582331657,-0.8415557646035338,0.12586201265516728,0.049399057179875555,-0.05471559110626356,1.9294728601604507,-0.08994862068112819,-0.07598992436067653,-19.447225751017715,42.91945297577922,-2.3464104362825733,1014.9008155677687
155,8.544336844794104,-7.316708731335907,-0.829870407111418,0.1516987149355537,0.1305622243607909,-0.01382516049256649,2.3885655212450714,-0.25659298301671757,-0.11601879979751056,-19.043105486226256,42.80842306300236,-3.1240158880350193,1014.9034235024519
156,8.904597995173047,-7.372540384810996,-0.8804214310142312,0.05431447578952697,0.11410968335631654,-0.14988442925352838,2.6455731827288713,-0.3416523265147169,-0.21215803142653192,-19.084664424080064,42.485047038499104,-2.9220657710924356,1014.9050691583542
157,8.431250100500236,-7.268650199786046,-0.6622341447487529,0.1811798378949693,0.10400394417511932,-0.12073394191153267,2.0927193607756456,-0.2231787750722528,0.08566846700830147,-19.76128508753528,42.28739764925092,-3.419233697236746,1014.9062702300919
158,8.561753226121215,-6.964436759069553,-0.7952027858928394,0.10367870594302256,0.23097049106042508,0.011119563056839032,2.346055114308138,0.16162674844282454,-0.23700267233880049,-19.47262159420296,42.19029730709171,-5.086927068560165,1014.9066316369426
159,8.724652184141933,-7.324012464032081,-0.8088908497215589,0.10698753930650422,0.09348567419891021,-0.08333845779187479,2.4638386483535593,-0.20357674402553128,-0.15616979506903872,-20.362617923103752,41.80143838770602,-5.707391602296886,1014.9068954074876
160,8.910377070325731,-7.642273064325567,-1.0814188401864038,0.2061836467040538,0.14798574081436516,-0.06471550930023126,2.6613800088232846,-0.5013965715670836,-0.4195700692524841,-20.976054199268056,41.48155633690401,-6.545169689166455,1014.9061810043781
161,9.119070901479605,-7.549430540771016,-1.039504651983569,0.02287061495610901,0.19982783086389755,-0.18103239696145204,2.866804604885553,-0.18734253135927115,-0.35053738438561693,-21.090443490494856,41.24471473528096,-8.023324147578967,1014.9053710748722
162,8.578908619333994,-7.231804706223976,-0.7473521896466222,0.08437856849316017,-0.04463228998363192,-0.06217507069657138,2.4592269650801644,-0.08982982376565089,-0.09066031207085168,-22.418234519682105,40.77667374580426,-8.796520256935958,1014.9044914260191
163,8.98932864157115,-7.625848206540371,-0.9476734861186409,0.12126299537296184,0.0275560975557054,-0.049300391140714814,2.9733293732439168,-0.45039222334066,-0.35117840376008225,-22.934020598609223,40.05117973990183,-9.911938963980583,1014.9031691664266
164,9.302300795473506,-7.542206381233997,-0.990032025431154,-0.05075530676569312,0.17286475636282256,-0.18167089353260568,3.107586701257208,-0.25011701427305466,-0.33802881947728197,-23.128119303898522,38.9167639965405,-10.539535279436985,1014.9022041234766
165,8.607614432890676,-6.912434200519559,-0.7155541163061095,0.06560095875687123,0.05249595454228265,-0.08378389005231374,2.2758938783269915,0.033033875580631256,-0.1696395280374972,-24.269334796124816,38.07521867356817,-11.092697327674857,1014.9032517559083
166,9.039435370800499,-7.0404723183862545,-0.8691163003936009,0.13740937366449416,0.1243679906673904,-0.007090822844959918,2.5951566148126366,-0.2192706771946395,-0.43159873774508606,-24.929422745674735,37.559093844186506,-11.919662998959232,1014.905047009879
167,9.256733732916983,-7.0907939368224016,-0.787601207628325,0.015137778574382046,0.1520262792876176,-0.14590835201352098,2.7169150665306208,-0.25253711260684236,-0.43900973223855255,-24.95193421947053,37.61108423132742,-12.423973593247254,1014.9063572648378
168,8.516653895427634,-6.546845936524895,-0.6698396905508591,0.09167190595670333,0.16462850623680583,-0.09603468862928,1.9024373109375134,0.24177824005441007,-0.22969400995892078,-25.462857587517444,37.52047972523751,-12.225361996491939,1014.9073135462802
169,8.93238623695902,-6.887142599867281,-0.8023965934891397,0.11176388359086126,0.1852748294074393,0.017883425069566278,2.375025417969225,-0.16735948861879374,-0.48009461732046554,-25.411486211293347,37.42796808586611,-12.86198493331441,1014.9080114823507
170,9.12497151152585,-7.1076177380172565,-0.921606319128399,0.07531878129707878,0.16533347057205958,-0.13804586581674816,2.519766489941953,-0.28601358356915885,-0.5369772791294375,-25.094959204896142,37.82556926614335,-12.516270765975264,1014.907737683798
171,8.404528267596442,-6.704287347465026,-0.7588695788396033,0.11574099923392275,0.1284454072174972,-0.11291725947878328,1.824384580748294,0.15381136747440421,-0.2633893820703418,-25.016734823678263,38.08387694808716,-12.188585635024154,1014.9075170515969
172,8.75842488937136,-6.956821611708468,-1.0204477058554022,0.12108139945083767,0.2556190640529361,0.03463345580102825,2.349524658422247,-0.050422973473669475,-0.6744345896067929,-24.42840061066945,38.21424836578477,-13.136352219250053,1014.9073560245554
173,9.074332108749035,-7.192308125907288,-0.9673625186886011,0.11694084973641129,0.08832893467043221,-0.09573978392647348,2.530756189000855,-0.2947580060335179,-0.5181438420103266,-24.42230639705525,37.710624650504386,-12.57023495939939,1014.9072384999695
174,8.822598995656623,-7.405631209457812,-0.5250368724785164,0.1247858085966609,0.18369364687911874,-0.07999060400400097,2.1278552658619483,-0.43866732763572847,-0.0304280230219513,-24.461497383425908,37.641724728924025,-12.33324486511358,1014.9078948444944
175,8.65865962304227,-6.789024238818272,-0.9701468149246575,0.04379751292078074,0.19455696159992056,-0.05127104089470602,2.213956694643701,0.13112472452132407,-0.5182073722794049,-23.918801703983757,38.005148762358886,-12.669388944145835,1014.9093426536447
176,8.82515420026283,-7.136715979670055,-0.9807356544652442,0.09900560492386265,0.09518185877725714,-0.0871735240477856,2.2882920839872987,-0.30927429637113346,-0.38666032880326967,-24.516900298807272,37.964108897165005,-11.840610465407341,1014.9103993281593
177,8.767794481388199,-7.319311220796545,-0.8969243057225047,0.15854838297870316,0.23685544767398803,-0.053805024423898,2.1083244152387595,-0.6202448869298083,-0.08464872391962014,-25.052129164149058,37.83119386016554,-11.493335993392511,1014.91117053549
178,8.770350462181865,-6.871757798973109,-0.9233477816258652,0.014013161635792193,0.2798253285978868,-0.1370304094168533,2.2367345653139257,-0.0073768252697156145,-0.45968666737243774,-24.027452296576016,38.347121162693796,-11.899119124962864,1014.9113830037628
179,8.599478488792426,-7.0938164859420905,-0.76220217182783,0.07001306625716537,0.17045009664692926,-0.058631609426355244,1.966549659124447,-0.33068006709813275,-0.20338457520400466,-24.431446005886652,38.30275458182152,-11.436783757327238,1014.9114556747672
180,8.898227024898143,-7.268974186897369,-1.0274091838587913,0.22064388782154332,0.22339055639213107,-0.037036454628662896,2.1809928739071847,-0.5685417430224532,-0.4525574752817771,-24.41302337125306,38.003238651016076,-11.491514916350178,1014.9114468474759
181,9.175290951349906,-7.1414042259915895,-0.843856730361727,-0.028603773007351285,0.27712591717775714,-0.17929951711524117,2.538973575560448,-0.36665714824217843,-0.2998430801749272,-23.558050054050923,37.89053051342324,-11.746962977145632,1014.9114404049321
182,8.599444960852672,-6.77033155459521,-0.8368988461571494,0.0888874933928355,0.18342483240222204,-0.09842070683579215,1.8907599757345241,-0.1450283655565982,-0.2524875841461556,-24.18904953395132,37.68313765759581,-11.481562774928765,1014.9127754075363
183,9.035066781609812,-7.11345514818843,-1.0594871555530645,0.16618793150579775,0.23923067565755796,-0.02374416571870154,2.2738380386484556,-0.4615037829387119,-0.5710438292988738,-24.258743000918756,37.6595154080721,-11.914932120903025,1014.9155841115727
184,9.188493817745162,-7.239920643168289,-1.1035031180666515,-0.01537870494100152,0.27592927783659704,-0.16705118711303196,2.4876710013474197,-0.4795562870263934,-0.5687769783745574,-23.563010989863873,38.26525761557131,-11.176664421261817,1014.9176340267663
185,8.383017163500874,-6.769415382271747,-0.8255569890711248,0.09853741508456797,0.22530105019426794,-0.13847247962795675,1.6566376887230962,-0.025234822390390155,-0.16465962969543474,-23.791758934861143,38.58892954817801,-10.454171711199399,1014.9199133274948
186,8.704902230798432,-7.0774627238920615,-0.9145155133079301,0.10281257115250785,0.20372799726617866,0.009592453735050716,1.9787029525191815,-0.32494345532878843,-0.35070313553275534,-23.476407724206826,38.75317731353568,-11.225737340834637,1014.9215768609728
187,9.093283202705527,-7.286599508323111,-0.9998672491533427,0.0914594464351843,0.10557896663406263,-0.12599558751870193,2.3134172135583695,-0.618172031736306,-0.3908361341621983,-23.79302211221001,38.666657109507135,-11.014825738231204,1014.922296324524
188,8.770947151947123,-7.227038149112646,-0.5802030226948718,0.09553274813231862,0.1670706294014746,-0.07845502502398853,1.8080463665449873,-0.3738516116289407,0.07220100991693473,-23.847648125456576,38.6972883811315,-10.413540791454842,1014.9223370304398
189,8.680870298278126,-6.7987505548581515,-1.0035210500353096,0.08560466165688949,0.23536611174494454,-0.019026694519231356,2.085943701469052,-0.09423932212313135,-0.29748798539174276,-22.831432904192052,38.694840705900006,-10.890848076849432,1014.9218823493118
190,8.911559126047624,-7.115141563011639,-1.049295446394608,0.09307388394448352,0.14829078149574904,-0.07277893938161492,2.2315432175662817,-0.4766094176204534,-0.27628626156500424,-23.25288497621858,38.793466456810435,-10.408537104637647,1014.9206435887116
191,8.908052896678592,-7.321667024490589,-1.0011691940316507,0.17856915799123008,0.22363909391509218,-0.03571014352642189,2.1563226243756337,-0.7368827424548957,-0.1181165352251348,-23.651061950455748,38.91800563140881,-10.569755335742002,1014.9197394869826
192,8.939459895943086,-6.951527515941239,-0.9764890295358758,0.02105200082602038,0.25507020581092477,-0.1233789975942828,2.388555741334909,-0.1329196778770888,-0.3711637014545114,-22.465618882923753,39.55517318137717,-11.016653360633036,1014.9187500433734
193,8.543912533602116,-7.108297095515015,-0.6840232700681811,0.09514237213446682,0.1901780015507356,-0.05961593432613821,2.0506194262190967,-0.34890253647359437,0.18102646283617163,-22.598291985507412,39.88391284533418,-9.940627592617506,1014.9168324628639
194,8.77659787032211,-7.458057230870822,-0.5896120544279678,0.188235646665785,0.22963114163762674,-0.035917455720430605,2.3213396954642023,-0.5290070800668865,0.21590141568942725,-22.311659126563907,40.15756392476628,-9.901382297687427,1014.9151441316503
195,9.042572004985907,-7.507478323303283,-0.6822997824774983,-0.00799496761175189,0.24734917763187764,-0.2016734960761407,2.5703128128954917,-0.6048110148095549,0.11411069809269452,-22.411203905859377,40.13597127895814,-9.935898940899909,1014.913788452213
196,8.2984058177638,-6.863317202653275,-0.6699615542087659,0.07025495717005659,0.2160981399661932,-0.08593178953806327,1.7530262838932607,-0.09608718806514782,0.25842116030245443,-23.19329583723685,39.813579876548836,-9.241535589068121,1014.9127990179969
197,8.810999107367206,-7.094289029448572,-0.7476674275888877,0.11809268512761477,0.247550547278504,0.0060985730612082845,2.138427762531971,-0.34014079137303876,0.07867327323538875,-23.125003330093787,39.22750069972759,-9.712156164282288,1014.912633407377
198,9.012260656874972,-7.124160306714876,-0.9584819521394384,0.03652572969245593,0.16947185074707205,-0.14045276419348515,2.329905320908272,-0.3931945089605366,-0.07220326009844871,-23.11466339853347,39.67412710816017,-9.213401193469458,1014.9129453277463
199,8.331883393372472,-6.8193083391255875,-0.7391932659276539,0.09281625262873378,0.19290399308891254,-0.10917623779099675,1.6404336054344655,0.051877841135217206,0.24200561829091613,-23.056744124125125,39.936728566589,-8.503055367616389,1014.9137087006584
200,8.660056805828228,-7.0505916512726445,-1.0061065295451908,0.09814829901931106,0.26535167559948003,0.0023619600658709577,2.1145583222963187,-0.23335786738419806,-0.07340029548437046,-22.640975425746515,39.96376108384338,-9.091399330275848,1014.9143277094088
201,8.895251783668392,-7.185481291152923,-1.0970739704588177,0.09140768136857631,0.14506553394913368,-0.12569599126853565,2.3773358215768052,-0.4720973823385607,-0.10973482562103279,-22.81334237080665,39.98256602968088,-8.52647640980654,1014.9148002911284
202,8.631206482931114,-7.287000857907454,-0.7820953798059838,0.1358916957191395,0.25577968797638884,-0.06882553854301368,2.020015708253321,-0.5245174110763193,0.2853166352218133,-22.98885460218365,40.08812262993149,-8.194842009472035,1014.9151452019607
203,8.613881685857777,-6.768382188995925,-1.1774136965771196,0.04838803412519141,0.21850406152200016,-0.04504917501800213,2.1098360496857027,0.09127070583112551,-0.23310538250492063,-22.09061011577838,40.2873606734968,-8.597846945261969,1014.9154793306338
204,8.673137941224862,-7.099733068809617,-0.9903737287779264,0.09222968943667448,0.14032191454607618,-0.09591392572262805,2.1402528873000177,-0.3967772933680807,0.02275199256096988,-22.558479383816536,40.043502401462774,-8.138899695793725,1014.9166506386457
205,8.767650382471816,-7.445675416806907,-1.0855088287137844,0.1744628751326298,0.24324883153496887,-0.021439353835403616,2.1301963714624517,-0.7065906468237686,-0.06972187732398065,-22.570125749058167,40.07571148079881,-8.122962853157098,1014.9175055105221
206,8.825467634632803,-7.068446011067011,-1.1375973497115828,-0.0003617331400067869,0.2615156760169623,-0.13688126741241385,2.301120983128551,-0.23220218815359994,-0.17073342314012252,-21.719499403705896,40.301191406417516,-8.234044670087806,1014.9181294334508
207,8.424216712242476,-7.017902966006931,-1.1042305996006494,0.09157122279833896,0.09840165747164298,-0.0661291155093061,1.890314985197642,-0.2895494297623425,-0.04362720648982005,-21.68087314614211,39.78076044094029,-7.664989475879629,1014.9197183751895
208,8.676723452367014,-7.270736507406803,-1.1891707706378956,0.17802974409015765,0.24428467335707238,-0.020321305574094436,2.0714396103857853,-0.47760204046703225,-0.20149524617923953,-21.889498710026324,39.74087146653136,-8.208724482826907,1014.9211255175373
209,8.96026132426177,-7.277259873865458,-1.2152138264618786,-0.041224507142937156,0.27734292913665126,-0.19228579000658452,2.372142058634361,-0.4466415053071435,-0.29073426477512504,-21.891702684994737,39.9430190285796,-8.373905727736318,1014.922152511639
210,8.218672810042143,-6.821485348554377,-1.187389438661894,0.05188615722447637,0.12562497252367602,-0.05309836972915799,1.6665575903828782,-0.09855316465453795,-0.10453784966751584,-22.305343903631424,40.149215460286406,-7.660891358375869,1014.9229020569045
211,8.645373704818363,-7.096449471139077,-1.1883005025518267,0.11949936608563529,0.23441013071486236,0.0011150640665322509,2.0135724595717988,-0.3211380949674745,-0.16182294534070293,-22.407513071177714,40.28161612378462,-7.7080619185047174,1014.9229749837086
212,8.908993283541937,-7.169780065987558,-1.1757204277354165,-0.0009460075058893569,0.19275064305266004,-0.16617446766329347,2.331068916122346,-0.41419903851959194,-0.16902794593881396,-22.420530594476496,39.97992652718484,-7.596186960984697,1014.9228015478218
213,8.307178394010641,-6.61280213849394,-0.956240949842787,0.030934899826258536,0.14571916373900495,-0.05201607113458449,1.6667951721034102,0.09523647449717931,0.1445355845954621,-19.954652636046152,38.559092367020206,-5.65194270562609,1014.9223245741103
214,8.71038386323435,-6.975500797818239,-1.2178658164800185,0.13470015729656462,0.20823870821371543,0.011129509727161674,2.121321490622795,-0.2121494073487621,-0.21980038652997044,-19.198805817191108,38.00571466773402,-6.950935227616039,1014.9219764578099
215,8.839865827148529,-7.10540528375332,-1.1964270604212266,0.054336227129773915,0.14306249560611126,-0.12759068263109044,2.2621989572557286,-0.39112829316223885,-0.2206841452278155,-19.769383940073258,38.20181350227625,-7.139614908564942,1014.9217223872905
216,8.296358317969252,-6.843920738076114,-1.017574911292578,0.03516249149436228,0.15754482208418566,-0.08412770888798987,1.6664947602430829,-0.1251159937287772,0.07136801738447784,-20.585918626550892,38.727417469040546,-6.752237726767931,1014.9217222826616
217,8.691600628097834,-6.9900418836288845,-1.244801132024925,0.008796572780561302,0.3137660747651041,0.03380829105877034,2.074511183244147,-0.25851533854816144,-0.3519088897764874,-20.4192328575154,39.29639131986701,-7.020402098493315,1014.9217222062988
218,8.981939636768388,-7.252257340893468,-1.139327805422725,-0.01691270409224209,0.22445074037732216,-0.1455783131617274,2.383001800572386,-0.5836053927777838,-0.24907687946391155,-20.137427212087758,40.050557096099084,-5.875548424037779,1014.9221138770731
219,8.310899058947173,-6.706364162799522,-1.0621584821676076,0.07187107571768048,0.22123942819560832,-0.11128455849065869,1.5934070640389524,-0.10414872223041038,-0.10211948430976406,-20.466101207730123,40.266476429409764,-4.803575686645033,1014.9223997355548
220,8.7016550505526,-7.17279668560895,-0.902395452088013,-0.04891165373350437,0.4122412777570461,-0.02718252056486213,1.8454038533880137,-0.7622125412383335,-0.4058441883641942,-20.112324818673002,39.29190162501321,-3.180740708892974,1014.9234120823222
221,9.045131894207104,-7.346002253285165,-0.9076752139331996,-0.19901636827773653,0.42537825339424334,-0.1950083994633789,2.101050996408039,-0.9443788292018767,-0.5402056509148029,-19.983389741288022,38.394248195901774,0.9645442157037127,1014.9241509373219
222,8.30366468211962,-6.89845893140176,-0.8636872611377832,-0.06123164627420749,0.26510709287135487,-0.0543726998198199,1.3280671085076996,-0.5451681827323549,-0.28283699638762855,-22.571552660524425,39.1017337305242,6.691233870483009,1014.9246901860537
223,8.590314596702934,-7.543159125196729,-0.9685525498862195,0.09603803906395861,0.24705287473803098,-0.01353862679493345,1.68699769355135,-1.1477215177051763,-0.36124695360185904,-21.73667286538646,37.907988176078,9.303753172253504,1014.9246304312674
224,8.747544562219462,-7.594779884384617,-0.9687432441264192,-0.04903259481744049,0.2808211386319413,-0.1635061221771455,1.8461466612547444,-1.1390415056522332,-0.2941928955936214,-22.331261406578633,37.80601555403474,11.905170084064135,1014.9243393565176
225,8.054305349518504,-7.1058636242758775,-0.8844806706289963,0.042713600828684056,0.12283644479605169,-0.0698571899987627,1.0818901757702526,-0.7610620367723759,0.04902790153301745,-22.657942547739836,37.25114411177269,14.2772005554859,1014.9227048151204
226,8.487043940334628,-7.3586850378030055,-1.1589656208180252,0.09206708717640602,0.24876081217675677,-0.001108839193063857,1.4912886032928578,-1.071245476140879,-0.20416477680382739,-23.061543368676002,37.05979472725438,15.307800960543252,1014.9208934676661
227,8.959827829993685,-7.467490445275852,-1.0195128016469064,-0.06464570031112127,0.3180025381289876,-0.1628231852489867,1.9219031909103101,-1.1783748095210638,-0.20596950379437587,-23.932326469746155,36.62272013394523,15.575498975340558,1014.9193448059168
228,8.209036348945093,-6.872141311037892,-0.9681420112419218,0.044152947829078665,0.167201240895064,-0.06075860184321255,1.1524381051324233,-0.6177801920381539,-0.14632085999024613,-25.000563080624648,35.64672997376983,16.400961440155005,1014.917575605318
229,8.712993228478908,-7.113411026471493,-0.9892536982947859,0.06875938840355308,0.2046955847635556,0.021031119171999207,1.6154211169079624,-0.8577727903171461,-0.3407633340128448,-26.386507392901734,34.67092691205535,16.574257455516065,1014.9151713216581
230,9.018586296785303,-7.2358760500727985,-0.8211336591446715,-0.013170458813801605,0.22601659069675742,-0.12284004905500265,1.891860572767253,-0.9159215023507654,-0.27151561600420593,-27.6398096454709,33.4798875226341,16.96499454509168,1014.9133960382919
231,8.258914477623614,-6.781315798979168,-0.527632864637334,0.09635419446474035,0.10273226485029503,-0.037142990507029044,1.1978320222443481,-0.4900454103489893,0.11831665122695562,-28.18477549984068,32.28153027324333,18.422795230441118,1014.9105339930385
232,8.697578312319504,-7.167231467634213,-0.5737447407716872,0.09342803533439284,0.18244375884125635,0.0536921577294036,1.7548936454257567,-0.6541066883847895,0.03558546684420329,-27.85920130196616,32.56457446658916,18.562046951844234,1014.9080739524538
233,9.126535616601377,-7.490352882945254,-0.6526726633079765,0.04404294069878469,0.14949948580089933,-0.12428811210139278,2.20037279273723,-1.0067339181506467,0.024071621799349095,-28.72752607149573,31.501929203309572,19.127532248987272,1014.9062785071146
234,8.572499342417048,-7.252190627435465,-0.4530473082819273,0.055088523187021614,0.09279258283375774,-0.12136012653859718,1.670549496566991,-0.5354228135206887,0.3450429662466609,-28.48631128112897,31.378185541790685,19.84145430106649,1014.9060192903073
235,8.627910146126267,-7.132359262503711,-0.8638529021028336,0.09370348223311935,0.2438554413259643,0.028181309031105245,1.9258564732031591,-0.4992165831448596,-0.15474748118087828,-28.664268074085705,31.58150060794276,19.361410794955386,1014.9075201997921
236,8.770738975034106,-7.509080265039722,-0.7249947148425853,0.09165006056374178,0.1840667487486511,-0.1324019226851265,2.1749544383008184,-0.9062359416311574,-0.05211895838891453,-28.95266835296161,31.12393347373779,19.519910077665806,1014.9088012265737
237,8.862334662633563,-7.73179358806053,-0.8415720651424393,0.16966538210377222,0.2711618289028488,-0.0675901111545078,2.114183597477857,-1.1448257905301653,0.27880528954122175,-29.343727494916614,30.634716141255,19.975047118013084,1014.9097775099132
238,8.719288867552818,-7.310176305138122,-1.119550961115788,0.006102115096797589,0.24379119468342345,-0.13267970427753556,2.24009008059903,-0.4357036885071628,-0.4664092520489249,-28.486356083425477,31.283606073674026,20.161561513181745,1014.9104693772937
239,8.346113829790745,-7.42215561898239,-1.1451634242232978,0.058388547334740415,0.15491621483586082,-0.04837834470074624,2.0024469804864586,-0.5473183635271522,-0.2963365895534955,-27.76625938237382,31.375229683557837,20.677429840173488,1014.9109536654533
240,8.663255113403332,-7.743855654007083,-1.2852906350859283,0.13084798250498592,0.19485062687711502,0.013094916803694207,2.285608792926279,-0.7455500695692676,-0.545230146746835,-27.79032800059823,31.645030679890958,20.318799168149585,1014.9108535278785
241,9.02383261806331,-7.907119751761595,-1.265156586944715,-0.026748310730247582,0.2078638287189332,-0.13392790871636193,2.685278306389078,-0.8890167313052816,-0.4863706668939383,-28.084605531993407,31.407297755879917,20.30643295563673,1014.9091316797306
242,8.306892128332983,-7.247899619852532,-1.0052928095642075,0.08357187816380017,0.07630438806856268,-0.09449374954494201,1.9101729997187191,-0.30047578414556775,-0.17537803786813638,-28.72078850315024,30.803190836216675,20.653502860050157,1014.9078749995558
243,8.77154648153277,-7.650288364126629,-0.8707564367057952,0.10112267945013897,0.29371907986442924,0.0018696942397276733,2.468235385372983,-0.5765020026921657,-0.12224781877813685,-28.34840005472711,31.633547539925168,19.90518528508363,1014.908029529029
244,9.132445731949746,-7.933927393250755,-0.7948981205283633,0.009378397646785191,0.16564492696413372,-0.18807626417713058,2.8581555233917686,-0.8809259071156811,-0.0984159105435327,-28.7290186220474,31.376825024390378,19.52067494131634,1014.910244667046
245,8.562814449091146,-7.800850360161203,-0.4976250752349795,0.03157713717832885,0.05880442630046487,-0.13661184782763838,2.3211915546036392,-0.4579684952316469,0.3535907840210629,-27.794135645708913,31.695819466558238,20.388312318569742,1014.91318054455
246,8.696070178162012,-7.4767413854413025,-0.7855758351531265,-0.003457920386419268,0.21754046606200952,-0.02531966724595125,2.7569125090252307,-0.24661599044078497,0.06373237986407498,-27.13386255006418,32.350619206802605,20.126267829632695,1014.917075239543
247,8.929197191815057,-7.639745712123367,-0.8220820805121318,-0.004678186804843426,0.06406892927499436,-0.13362453948590874,2.9080054518260146,-0.5630976489756532,-0.0069117507093035685,-27.767951134683074,31.407558323681968,20.2690618993836,1014.9214635923346
248,8.890459122776955,-7.753404880097866,-0.7937873204555722,0.14803328791084733,0.13922364108133423,-0.03904974669109644,2.6581835359540573,-0.6850719128146461,0.07837466896658633,-28.40416238539078,30.792052974587847,20.29471345800398,1014.9248725335493
249,8.791517023360734,-7.2512908759626695,-0.8134570118134672,-0.0217420911915914,0.17600436762218089,-0.07577431888118635,2.6684368617248277,-0.08930684605003503,-0.12079148403214575,-28.459699133286964,31.27135062031461,19.36108426880038,1014.9282261086219
250,8.635016242183058,-7.411998545091578,-0.7196032356845238,0.01151028665943149,0.14684060126517728,-0.05047494611262668,2.3241201010922157,-0.5240162539121263,0.06840102340565689,-29.60701622999037,29.954194564047945,19.657717565701628,1014.932363791818
251,8.950712982010177,-7.679258926719232,-0.961803687811573,0.11411053787383355,0.23213064691789254,-0.013551886483873322,2.57432026667441,-0.6968922715532491,-0.21099311618384065,-30.035653390943075,29.946907927300348,19.4841120227185,1014.9363732364001
252,9.145146642859018,-7.7979467579490676,-1.0401072485652516,-0.07761052738882965,0.2510811436689323,-0.17064219254250132,2.9123155620735943,-0.7182769673035394,-0.2562815454408621,-29.454420476962117,30.409616523176506,19.714838208580172,1014.9406597411489
253,8.35273640446039,-7.334862177123304,-0.9542300684610664,0.041708577363891525,0.044492225677653346,-0.06570039122090093,2.1048500705134967,-0.33447891090561704,-0.056048961475399506,-29.449528923185248,29.997304126996664,20.103476828952342,1014.9454783172741
254,8.763226144380386,-7.622142935545005,-1.1662040724453135,0.09879093161275267,0.22645848993411802,-0.02605847431672475,2.500992663747144,-0.5311215348109048,-0.3164986412748697,-29.339205154174113,30.278664259793516,19.88989999759611,1014.9495619128592
255,8.855869666129655,-7.6977916870428045,-1.1028864329275991,0.04090119745071775,0.19818755457307485,-0.17368231766515455,2.610495086836402,-0.6787405798195498,-0.26161748898457293,-29.783660975544034,29.84000530551489,19.934441604100627,1014.9531090874626
256,8.417427837815463,-7.659904522433925,-0.7703947648530465,0.0949493616020888,0.15700923490626068,-0.1328266565996593,1.9361684621080424,-0.533500211317514,0.08365356470012231,-30.0961205035384,29.272396523781556,20.33173451831743,1014.9556979708124
257,8.462989230335554,-7.258855376929188,-1.087464027077811,0.10946231338549785,0.25468493636979805,-0.02340373969467273,2.2108347931506955,-0.20943573670778276,-0.30558104978642453,-29.70032962743159,29.99708061294744,19.81541473180297,1014.9568042683852
258,8.516250251653707,-7.5505751783555874,-1.0261487591088347,0.134914332311597,0.19496523172886854,-0.1282162458796728,2.276124726284955,-0.6073218221518746,-0.1600466951833931,-29.896273007579406,29.547836237785074,20.290973542926594,1014.9572613001898
259,8.683507922720478,-7.91093478632482,-1.0606953718728287,0.1968414165975551,0.2847859377958433,-0.06554202789638235,2.4377073522857855,-0.8395729114661538,-0.13418079431581456,-29.63270217853136,29.855634667148635,20.42582425008214,1014.9573682009516
260,8.74674065843647,-7.566377970959721,-1.1008076634173667,0.03455268513947954,0.315595011423629,-0.18699537491483303,2.650418273251025,-0.3644014499405879,-0.3039569798687794,-29.182702668024977,30.705008816714873,19.74160810069049,1014.9574462218085
261,8.222572255499566,-7.432606073888421,-1.0261717800905392,0.10916624938354864,0.13833932784424605,-0.08943764968077005,2.0971800958122664,-0.3217413512584279,-0.1748734138892173,-29.47874359275624,30.45072361140775,20.031278010010105,1014.9573589014291
262,8.641005313002884,-7.6344020739967755,-1.2273028341908085,0.1612983601058,0.2514495345921183,0.005883012071027843,2.3860816688896085,-0.5147070500629002,-0.440075874939135,-29.684967811500943,30.394892353198575,19.834036779377374,1014.9568210470408
263,8.87010106937861,-7.653013300542896,-1.2446983243468779,0.020488801394263456,0.22970178802207472,-0.1857057649776595,2.672645209148719,-0.5502875639489593,-0.43112083063999207,-29.481980513219025,30.440139678687064,20.002042000226748,1014.9551711903465
264,8.187977723474539,-6.99281662619701,-1.1115394875253586,0.1120727739241886,0.1580914025312074,-0.1064501289037767,1.9672213348520522,0.05742909003306529,-0.15391992750296724,-29.23285599323426,30.253621698562913,20.903556127627212,1014.9515761702119
265,8.616146543862037,-7.332067012337509,-1.179185078335184,0.1629672101911319,0.2335299874368879,0.008354059396212574,2.348937175888638,-0.22042409773476612,-0.3701796252538626,-29.211098320825595,30.763498051960696,20.272043368443068,1014.9482102479843
266,8.861328876487818,-7.5471156380290045,-0.950654728920485,0.08143704163251753,0.19234981950018296,-0.15940074631914808,2.5928206149813215,-0.5412097332988093,-0.15511739084567416,-29.449707976221756,30.700122598452964,20.308278945379286,1014.943218504663
267,8.47777898390362,-7.478377944791736,-0.5424771392342658,0.12171429021652803,0.15741867798178452,-0.09664640380232536,2.150521486622724,-0.44238670112857736,0.2863084041840906,-29.331389093963438,30.824395777660595,20.47342488704208,1014.9395753118081
268,8.610274533673199,-7.074632051939348,-1.0240370695353282,0.09264317395957784,0.23846488868815632,0.0009960112978207175,2.33639117254172,0.007470966872413498,-0.3608077363497641,-29.108107245204398,31.443598293417427,19.78186876952655,1014.9372048769683
269,8.717971551010814,-7.328318404699846,-0.8356828198421922,0.1255327084508424,0.13226469872606753,-0.12926203786089951,2.393639776569406,-0.37661573948425786,-0.20468646012053862,-29.686010459736263,31.02651158993863,19.847092684174015,1014.936319878456
270,8.74361692104613,-7.5767869372282375,-0.7904366922907494,0.23408793763551652,0.17899804552844578,-0.07173426013057507,2.2888187787333307,-0.6107009006613418,-0.10689080225915319,-29.82375789192233,30.876723098739983,20.064156938266713,1014.9356739677893
271,8.688216816848165,-7.043425516544354,-0.8403624479042562,0.03848412601899051,0.2311302818956879,-0.14151394876997372,2.404291712828217,0.049749576573680176,-0.2134385838230646,-28.884027171442472,31.464122318670942,20.072040778342156,1014.9352025539015
272,8.51050449837198,-7.299718451054972,-1.0023510192657572,0.09076774104656148,0.13793092870603613,-0.08470297572686972,2.2581444673847697,-0.28997767095637766,-0.29406601474145394,-28.24788627683579,31.421649619948422,20.54610098594076,1014.9348584954039
273,8.84306300442101,-7.7001484246243495,-0.9549465666769122,0.176859962867717,0.2665909413981622,-0.042680763672928834,2.6548750550598683,-0.5121125061207239,-0.274520705511711,-27.419796188111494,32.31185453419841,20.397039883487455,1014.934133532451
274,9.012385869920308,-7.691719020417419,-1.0076937262665815,-0.00013138047261812558,0.3179167214236176,-0.2135331353347917,2.8834206599938974,-0.45829216647779325,-0.4279826010643024,-27.349923678285514,32.75818838439852,19.778066977534454,1014.9333774915252
275,8.254665311495526,-7.041123666839264,-0.7233595566153788,0.08313958732680675,0.14412299284351865,-0.10199556991762307,2.003962996441617,0.04348321028683688,-0.08070745865998452,-27.8421315083713,32.25492755449348,20.069124585072302,1014.931815855832
276,8.612040686142917,-7.4101148954833915,-0.9876061520169445,0.1502042855492091,0.2167055628104132,0.01603370655117832,2.3600847633029796,-0.30433396178139427,-0.43716693467752005,-27.676134043391738,32.63596382498449,19.600632667142893,1014.931685949642
277,8.855443604391967,-7.494114326246427,-0.9832566535461296,0.09390896646104308,0.1076333864623325,-0.13369665677595893,2.610383724932806,-0.4765217350049925,-0.48035489953866767,-27.737902099276084,32.506186074462484,19.604589683463935,1014.9315087407715
278,8.542845206744486,-7.684273999032807,-0.5617341576258436,0.17049696212925175,0.14437547124864125,-0.050889366212719944,2.21516285417029,-0.6336619625504468,0.1101583023919917,-27.00144561131936,32.62430104861304,20.330102116364134,1014.9323895200544
279,8.671126295746978,-7.2215621011987725,-1.014336808901977,0.02616399556417523,0.1744548541537613,-0.1198844312648338,2.5560266105633973,0.003222740014516834,-0.49528569032082664,-26.135275149419574,33.64788766930734,19.479042496433582,1014.933939265746
280,8.544678260289528,-7.3818128871866096,-0.8364388612581202,0.07072978397753524,0.14665399435653445,-0.08745401136220612,2.2894379765342636,-0.38814302120817057,-0.24274295311289235,-26.88858048434324,32.935035323059985,19.706046527547286,1014.9352556651735
281,8.973635297594381,-7.788820143191281,-1.048467365482546,0.15656716436589535,0.21602825553985866,0.0007175680996448358,2.666780984600488,-0.7095880824249984,-0.49566572170653483,-26.704993719949243,33.08587867853042,19.314194289203797,1014.936031103957
282,9.137702715554024,-7.766361398481387,-0.9298744831690647,-0.018755630414092117,0.24139306211851982,-0.18029152095487672,2.986680548285813,-0.5849157877422808,-0.32114358086501704,-26.0450244353229,33.50267853339942,19.348127595248048,1014.936699982653
283,8.420200576645726,-7.123890686012661,-0.7403751622692978,0.06410244650691513,0.2061448012037567,-0.057696648792245994,2.1691826704446777,-0.10362103794889915,-0.0570276532781987,-26.720659326611536,33.02360491028423,19.69053813396176,1014.93689963278
284,8.749299823500197,-7.414404221261421,-0.8205146658806994,0.13049529170127377,0.22780560267665195,-0.011693382078716043,2.4597052626905596,-0.3145575852279322,-0.24868869364118484,-26.795217886640074,33.348636811536316,19.108231243845328,1014.937045346185
285,8.919535171191908,-7.552134525105244,-0.8058350927900206,0.10174480073137555,0.1231063335475305,-0.140414729266132,2.619048752792455,-0.5937181925442809,-0.19538833887512733,-27.138834033382192,32.87614205541892,19.33647011250644,1014.9364095750944
286,8.704357336367051,-7.398217480294496,-0.47751839872550506,0.1547103069424641,0.19995417453846198,-0.07626052556198146,2.190205146928464,-0.49477222278729394,0.18228421140525627,-27.59446609214108,32.393421183698564,19.5485759247362,1014.9341525347352
287,8.792349253516262,-6.8705660385574125,-0.9029331135518355,0.055603763591389715,0.2023642553214995,-0.10542186702163776,2.372111577242546,0.09908359584788062,-0.33377413205889606,-27.342419572909733,32.9008410157755,19.189933322726713,1014.9325052478493
288,8.743511828598681,-7.106241602983656,-0.8675370666090938,0.07297710466245938,0.15222532031332608,-0.05633509150896736,2.259981040721799,-0.3159718548110524,-0.20307616614912588,-27.860249995800203,32.302401282405945,19.684215257151667,1014.9313029857485
289,8.897975795285681,-7.41590175862087,-0.9297979780864953,0.1800900961699075,0.23677526754647946,0.0068538983457618885,2.3579923863522136,-0.5393202303224207,-0.27249475608969437,-27.87933495061191,32.46065566962452,19.69694379266626,1014.930982044019
290,9.109620129374928,-7.4745697463295935,-0.9621889431882996,0.015354574524425069,0.2699764193406676,-0.16450739970559625,2.5823025252164253,-0.6017486152189333,-0.34400809524773024,-27.902115549527625,32.51431583682019,19.462092345567566,1014.930974467753
291,8.3517626352637,-6.849217027937992,-0.8038502699059212,0.09120325144935329,0.22993178055663227,-0.08735688012776333,1.7690074670428912,-0.08159483778980037,-0.0769090998185864,-28.238535698733223,32.064139594148344,19.867672318774396,1014.9326795673959
292,8.836805743510574,-7.111836544507688,-1.0699546229383765,0.11617230127709335,0.2570702423455453,0.029748409244444288,2.2363952140476284,-0.27525298035607776,-0.39622327384148726,-28.062634525118483,32.34593362264015,19.599059705779204,1014.9343362821578
293,9.142627940356538,-7.291722031649224,-1.0293392030592499,0.06781465906808892,0.16241812726834048,-0.17125505353986997,2.6160746427246537,-0.5249570529756766,-0.3764152114094802,-27.987306978483883,32.081591020501286,19.82162640475614,1014.9355454251355
294,8.741781056933425,-7.42169696247535,-0.6075839440806636,0.15373753877339402,0.1541316553085559,-0.1082822362909331,2.1947120118009824,-0.5853822838111025,0.20203630069157996,-27.222212534515734,32.364202854785376,20.37449143259529,1014.9350471422279
295,8.767903606280159,-7.037838286976514,-0.9488489753050959,0.033015619633387894,0.24880403187841427,-0.014864831986654836,2.3354356175562865,-0.09636551478959748,-0.33154870809937786,-26.9826386000323,33.205102109366564,19.419427068109847,1014.9334880323054
296,8.890984751830691,-7.283132996947717,-0.9261208624016113,0.04284000757834083,0.06723480169369112,-0.09365904311297883,2.522757786542108,-0.42341300420041755,-0.18475018612871189,-26.857995643454743,32.754113012648276,20.12923532938016,1014.9320821306513
297,9.050694618766359,-7.473839697095775,-1.1099484561761406,0.1527419175266432,0.23367024801158987,-0.05155336858676042,2.5417903909347297,-0.6094137213625787,-0.29815111425218477,-27.145163218133106,32.55162775017806,20.32480243774559,1014.9313240370245
298,9.150854868884545,-7.1997009879366125,-0.975523890184379,-0.03540706812435182,0.2597068114140784,-0.1956709178242227,2.721492636678462,-0.2712682024245867,-0.2708936427041531,-26.810341180035614,32.98733208367205,19.87997521528186,1014.931615795731
299,8.575221815377066,-7.278960688997164,-0.6500127132687552,0.04277608229958482,0.17677255087908816,-0.11194792457393318,2.1284762158745765,-0.46043257712707586,-0.033921697170362,-27.39523572885792,32.55168677410982,19.486058941833644,1014.9318903296268
300,8.954968742661908,-7.492000952794193,-0.6698745150755391,0.06256136497325776,0.2645285352725478,-0.008375380683814743,2.438585372386516,-0.6424590354789987,-0.19024795148809853,-28.27988214146841,32.14395800589647,18.758176996348823,1014.9330184129168
301,9.222217389692993,-7.578927751065367,-0.9181467076683734,-0.06726249141991725,0.2843651236311174,-0.1982290812262973,2.69807478737344,-0.8162728649738025,-0.5443156661764621,-29.854124154662625,30.526307386721438,18.120554890628966,1014.9338417374985
302,8.44788897035054,-7.038157772186265,-0.6281713130713542,-0.08830398288761418,0.21897631651169372,-0.11139598547471724,1.6536803243696878,-0.49741381278564994,-0.2610657900322167,-32.24868501537784,27.55140984650249,17.330840952335524,1014.9344426358301
303,8.983654538484037,-7.2597861837197755,-0.8572505632849603,-0.05693969860255871,0.322548177528293,-0.0010977011504510886,2.209722374644947,-0.6872029827428892,-0.5376526111351956,-34.19062281944062,26.08749544977705,15.731766882648412,1014.9317276642836
304,9.077815324974598,-7.387959683140969,-0.5810805756683844,-0.02191693398773361,0.2358149966315689,-0.1129485187434077,2.3419749472136355,-0.9236766956959066,-0.2765093684807693,-36.13140484177516,24.071215651234837,14.159090768530662,1014.9296326935564
305,8.904492393704901,-7.821503885543148,-0.5023336089437622,0.06592171946592063,0.35620947191067553,-0.055149063593865094,2.2340659899973834,-1.1702608397810663,0.1720169825772676,-36.75285353091881,23.590540267126407,14.271946794894589,1014.9279902265758
306,8.81833358597745,-7.4770322283810895,-0.6565225446026756,-0.08740770148393784,0.33049250531882884,-0.2156706174610136,2.307638699389885,-0.6714344718147366,0.04246629208139788,-37.168972630391146,23.70328135060667,13.608201897318061,1014.9251013849914
307,8.376012647044945,-7.640804829401172,-0.37062368316154726,-0.017405338230725403,0.30105782231353306,-0.16215641599417369,1.888288753884134,-0.9376553514473005,0.5642585485749783,-38.02183467586279,22.309225225870865,13.371381686472041,1014.9216327453794
308,8.73549553697555,-7.951291334157105,-0.6365146475644745,0.08902516043178164,0.27171026331878134,-0.02225755067853441,2.2520667602628164,-1.133530708288722,0.38822100816134,-37.88247452956037,21.956955310001526,13.818964451680188,1014.917060690437
309,9.003965344851181,-8.033704417660848,-0.8722426698150262,-0.06270030787221449,0.31134783685654394,-0.24291511558280682,2.720600578408379,-1.1277860773899988,0.23259830078473284,-37.387285684263894,22.33251787925554,14.157258940784166,1014.9136414068937
310,8.241797816786008,-7.527392426437873,-0.7354928683679509,0.0012845288234084595,0.11446066852360687,-0.16746499924861094,2.0480067097020225,-0.539322659393022,0.49199113532244354,-36.79329911006956,22.337080715631853,15.546034202974939,1014.908548852375
311,8.659012965252067,-7.722144578206572,-0.8829540146953092,0.05732739728347863,0.1273190399328398,-0.054609318635726975,2.5452867172750646,-0.6837781377344587,0.3361039473380738,-36.17571707279282,23.049068300443928,16.059013456446777,1014.9032862492495
312,8.705623170159317,-7.849572917896814,-0.8649421408817137,0.031798250774315875,0.018872669122226807,-0.17366477634694044,2.6371713566388575,-0.8852217836512019,0.303323483041084,-36.033306733350614,22.790499200040497,16.60138852995477,1014.8988061814517
313,8.531959775308705,-8.164384753823175,-0.6512464463747664,0.12845513858348634,0.12241239303348839,-0.07162879329796529,2.4486098810916177,-1.0609090005823554,0.6842457675591926,-35.06734744202375,23.46665623225362,17.77344797751342,1014.8952687069932
314,8.603809404308993,-7.636194518106167,-0.8627081324044636,0.0017684878916702784,0.09225855572595912,-0.16098606973527968,2.7400671419694898,-0.35933954557429715,0.3745081929194446,-33.96831316537235,24.867022926135785,18.138698367452953,1014.8919034502195
315,8.37199337450161,-7.786081589338017,-0.854052743350831,0.07166594252248662,0.04729848856116205,-0.0913716125066556,2.5607732373615546,-0.5629528824227563,0.5791645726693128,-33.19103054417186,24.978035604049918,18.97428886489396,1014.8894473384678
316,8.668425306197756,-8.143646529273415,-0.9329844656604607,0.11542299790254364,0.14872748344396386,-0.056788158428998606,2.864137117067159,-0.7911116269528939,0.14794269626264844,-31.87925910567551,26.18077239447514,19.291934807295366,1014.8879846212975
317,8.869846533073826,-8.227667522180008,-0.8753854721866045,-0.05813656050587242,0.19954468010072665,-0.27972911340423556,3.2326255739311556,-0.7823832346340053,0.11114549537988158,-31.029434277025512,27.012525097842573,19.269377738118227,1014.887411722281
318,8.102085802652935,-7.652154535795249,-0.7653397361128171,0.08076885439851612,-0.10112883694527766,-0.13883213181477425,2.3922356420026705,-0.2358943885785284,0.23580512708389526,-30.94161444345259,26.939215679834838,20.143566374575276,1014.8878594461515
319,8.450954843362068,-8.02677612958647,-1.0363312146490793,0.08520947241765309,0.11635014077465539,-0.12900244969536614,2.879187976593102,-0.47439201244069107,-0.15053573079396979,-29.120620350663057,28.89685209448124,19.89057917477502,1014.8894435216473
320,8.58700724169717,-8.219915925196538,-1.0456462701277707,0.05033949462147569,0.014379546644374436,-0.24829558612549463,3.0584224312608406,-0.7471250527478418,-0.22542986983766697,-28.407443916931214,29.148883722534066,20.20451310566038,1014.891259100621
321,8.463912319928532,-8.268546836261752,-0.5702134578092178,0.13828227311295255,0.19235204350156085,-0.16499616793318556,2.783769448815062,-0.7477124586999915,0.33284663774192014,-27.568052277903046,29.871677764588124,20.739676708221296,1014.89324364097
322,8.505720902447669,-7.601922317275855,-1.0408760659105005,-0.0033651789813453348,0.22585889114983096,-0.06205674155021945,2.835264035486982,-0.1038340399246076,-0.3490364231752957,-27.40012104752872,30.743692711383392,20.1260894813267,1014.8956402937197
323,8.604798122243476,-7.879997157156207,-0.9773285830089531,0.026835742605217285,0.07212185321700165,-0.1917703107619872,2.9369106974551697,-0.502343202330589,-0.2959005563003938,-27.125655375094993,30.874951956273517,20.467046707383183,1014.9001926166958
324,8.777641003206442,-8.027838605260111,-1.177698505957602,0.16574747955232327,0.1897697319619398,-0.09485935965412715,2.9500156935116926,-0.6135909198228816,-0.475844252233084,-27.0033048996022,31.39070419348967,20.458040575011708,1014.9038036281756
325,8.843835561706658,-7.9631697466759634,-0.9326405561465767,-0.011357110749041277,0.2703554801863943,-0.24228669121891713,3.098175827625579,-0.4889969721182279,-0.3772984913730785,-26.138717918711016,32.42385172289989,19.85112118324131,1014.9061505756389
326,8.089526953766944,-7.695451068079106,-0.6819331571711085,0.05806717160506726,0.16861445428866156,-0.11368558656492139,2.375170421283888,-0.25117632319271743,-0.09251248548969687,-25.45859735702124,32.547746315612855,19.914184618194454,1014.908254937017
327,8.525486142791346,-8.041963933907674,-0.8989219506157564,0.15419918150138065,0.1164728960511608,-0.04454747441711131,2.7963747909125614,-0.5189504212008125,-0.413044502238473,-24.288035178607814,33.79939675312439,19.366305415848167,1014.9102854481206
328,8.711514158264473,-8.198213069223385,-0.7874362221471938,0.04900823447676038,-0.033830787735236637,-0.1949779544897185,3.018789812808486,-0.7799117330839562,-0.29422543815452723,-23.669484081807155,34.44608679984058,19.230377890994784,1014.9117674040364
329,8.516685828287185,-8.203442322738796,-0.4383787661499849,0.12350483226159549,0.04918423687350684,-0.1232007655536458,2.506923880281733,-0.7641044652571918,0.17168738766846925,-23.34140946804699,34.84788836200784,19.25343529884799,1014.9133025926355
330,8.445350198190898,-7.7274994985174095,-0.8218721826911768,0.05519430006955947,0.15625825424460205,-0.03931735812154284,2.7755022466628727,-0.2502561817365708,-0.3135690803216492,-21.444760948564173,35.85349090307576,17.30892067967672,1014.9138665187018
331,8.680616580339812,-8.039357020876883,-0.5251444716737637,0.055139608517434505,0.12455702351196937,-0.20796726140976107,2.755505965003674,-0.9141296723972006,0.09951462368002051,-24.104436184620923,35.75467266198067,16.575137196573486,1014.9135978432967
332,8.793845104268279,-8.302067687356235,-0.7469896868352456,0.18346222021951902,0.1317985728634844,-0.13639521996266818,2.758225812590567,-1.136494490525578,0.14210152019684447,-23.86999853282422,36.56967464971876,17.225756853010584,1014.9110522036466
333,8.790324994906397,-7.846737209613858,-0.7562734643531198,0.011330598490403493,0.1307484581322389,-0.2265462977382986,2.7888805043565887,-0.6397657460005053,0.11186356099121669,-23.616891134062232,36.63920011384105,17.087954374027074,1014.9042682559939
334,8.511910023545488,-7.829938583094181,-0.5072141735004312,0.08175428420647371,0.06231267761969103,-0.156953820671069,2.420172875973507,-0.852688799668668,0.5200338654183381,-23.9288659191668,35.57559699716385,17.549294499650873,1014.8981215927031
335,8.937353253977077,-8.073664038859505,-0.7645838869245362,0.16550824827495642,0.13880682335276834,-0.06547940083144031,2.666612240238153,-1.1203316353097463,0.3050078945584453,-24.220325387601704,35.48922748060846,17.09677930009816,1014.8905024870935
336,9.135742209746823,-7.849476180409679,-0.7804201630865696,-0.010755335271334043,0.18727260145210795,-0.21006537971706463,2.776066591128047,-0.7296190072976423,0.21547947104049509,-24.482949475546334,35.01833467462392,16.551147420674635,1014.8835196278939
337,8.468632225719489,-7.3131671893283485,-0.7956859982832312,0.12020618402183211,0.010857510163635925,-0.14467009813486487,2.0960671526393915,-0.6100444713503366,0.27658306370907787,-24.444977074263203,33.58276240815968,17.529889901981868,1014.8779079085095
338,8.924679891722155,-7.415151425035125,-0.8273611514244748,0.16080827348255844,0.15034739661940677,-0.03949639581321347,2.3319303709343173,-0.76974504028355,0.2278628258524995,-24.175832763538253,33.59651044533234,17.011920869311325,1014.8732969070021
339,9.147460035248507,-6.929323334367832,-0.7905385465689032,-0.019154526970336372,0.1495822026741032,-0.16697527767647807,2.4004661995243435,-0.17132932303991733,0.21886050882283026,-25.328717983722417,34.165242176301554,16.69970713389897,1014.8699315961948
340,8.82592678640512,-6.691584798401026,-0.7303746576702541,0.0508463205647884,0.04525941322847424,-0.10400972178607157,2.069153842133332,-0.24444862776491802,0.30415632143112353,-26.177054561970294,33.529274837876656,16.46825952087941,1014.8688356815337
341,9.10317689213209,-6.828638021965864,-0.7081730623379376,0.07465473917702865,0.18091835495242245,-0.06625771919072701,2.2699157537200976,-0.4257169703526018,0.35194726411801264,-26.140758967012975,33.7588363719184,16.44892770999946,1014.8704267175011
342,8.949171686311262,-6.28196398533558,-0.869536690035253,-0.010133685909313267,0.17084946315457938,-0.052853229704236185,2.134034903673331,0.22902122583171824,0.021143812612348434,-25.810006902898618,35.112571613789534,15.182767061814884,1014.8743705342008
343,9.20046211271618,-6.5498022393100435,-0.6870337159270921,-0.018174675001139003,0.13316581053395726,-0.11111631212848548,2.3091105998656345,-0.13871535065114826,0.20627176569664865,-27.40101786524124,34.24016184619906,15.353484416054167,1014.8817421424365
344,9.173960442898952,-7.186536967796581,-0.7970558331549152,0.038876916290369296,0.2122649042313426,-0.11171934449642222,2.3340625783867983,-0.7300851842996295,0.1601585369799471,-27.221598017906206,33.84229804368377,14.895055376429514,1014.8896368789359
345,8.956771980583236,-6.700497604280388,-0.6081450299801373,-0.07954953090387058,0.21843894245377343,-0.1008256823594742,2.213609767649312,-0.0340879183931494,0.2702841214360057,-26.056341478215362,33.876837238276714,15.296170811170711,1014.8985728686622
346,8.959351017163089,-7.115926240434911,-0.6222126155101945,-0.007983222525659334,0.11975296103780686,-0.14473550084518144,2.3528028605129663,-0.4477603758290246,0.3283616097738192,-25.661018669736734,33.86439938627544,16.397157132002935,1014.9054451378615
347,9.180882539545577,-7.370351427313849,-0.8614428453040939,0.1080748880524305,0.24350060033043952,-0.07730155878762174,2.4938200193929148,-0.772754747770601,0.13954489639439346,-25.469612319440923,33.976000197088744,17.07793966684012,1014.91182132753
348,9.0973153805768,-6.99457477141907,-0.9016971798098121,-0.046693254897282,0.25871265481830924,-0.1749237141306283,2.6073626424897465,-0.21262286364867122,-0.03661345609146216,-24.55250590249633,34.92701040628462,17.029230431197277,1014.9165778794682
349,8.832780281350004,-7.180326920839855,-0.5701870091645251,0.0748288637252375,0.22200424278375144,-0.11915509306363631,2.399131173643554,-0.34925328911798736,0.3164841123369423,-24.209816412979887,35.108666491945165,17.33787263702331,1014.9200494193532
350,9.09921258366208,-7.699610133353594,-0.8101463285572386,0.07300880543055899,0.29797024050929727,-0.11965087252495735,2.834417221881796,-0.7674586341593967,0.14391254182339633,-23.19793040777657,35.55860030487071,17.715075522447492,1014.9233457521595
351,9.122838729350173,-7.671245293029368,-0.8629533539285549,-0.05599330000922298,0.3784484307474364,-0.26046804088467357,3.0335427347523267,-0.5425340170090881,0.025402028569766005,-22.688615096665693,35.82401596921608,17.681315601347404,1014.9263080819784
352,8.372059031278901,-7.396406416366413,-0.5583988040026243,0.04366836262340257,0.0768608567529881,-0.1446184506268785,2.297319514611603,-0.2661942900865015,0.5010037066771442,-22.577178549111892,35.58512531968601,18.548904000784074,1014.928470119995
353,8.8779143915144,-7.749016278480284,-0.7492356862590248,0.1363367865800818,0.22000671156578003,-0.07626319625751038,2.888464595856701,-0.614936018714072,0.3112799368432696,-22.305875058179222,35.94404537119515,18.676205829883006,1014.9307693870969
354,9.000782280263788,-7.803919300595766,-0.7219702096032874,-0.0007982367715068384,0.20270851107227464,-0.20411036825404383,2.8505775382964265,-0.6964348713348827,0.1755130299557634,-23.103373925108926,35.54373929544169,18.23916903243987,1014.9331688099942
355,8.29005470979565,-7.269081151244877,-0.5843651909799206,0.08785351941344624,0.08317795938986734,-0.11729220310590106,1.9822176148900805,-0.271235479885886,0.3379046575447875,-23.70541700395474,34.904535125970085,18.68244361013333,1014.9347757504737
356,8.710834115712103,-7.5712432674216466,-0.6898233315125784,0.09974220112272789,0.2734437928505667,-0.044197167050711486,2.5962385908091505,-0.5328100228007202,0.26643736228363946,-22.87059313310037,35.36056759401773,18.304633565438394,1014.9359485660005
357,8.887325569372223,-7.8972547618035955,-0.6425600370645457,0.0023290661602994034,0.1769833918339796,-0.21743717231836357,2.779465777365282,-0.7530387866062191,0.3374418701644456,-22.652860486064228,35.35393308073666,18.54173462526074,1014.9367634743833
358,8.439679281932149,-7.994760155208668,-0.36302373006353666,0.05963492099189601,0.18825649513580675,-0.1751208732463167,2.129163368928599,-0.7893588653075865,0.6488448183390028,-22.849911424382316,35.158542759639616,19.60139942433736,1014.9370902352421
359,8.456000144220258,-7.41642199589062,-0.7279955896711588,0.05979654342622769,0.23732740588980616,-0.06530551533031978,2.3918373783374713,-0.2962975145762328,0.24795113814869046,-21.74529992907417,36.18083541846888,19.695111466995915,1014.9358858152974
360,8.911325118680335,-7.521752310317271,-0.7401453287633225,0.07877967490914836,0.1245418575736334,-0.18479368821475928,2.657792372639688,-0.5469717801710317,0.2325778824410642,-22.940876804833977,35.44400571425344,19.809338033797584,1014.9334817450665
361,8.534871242410427,-7.683466115683168,-0.35086300637477535,0.07675465149290275,0.1836124322223139,-0.14341815815047712,2.1338670645597078,-0.5915738967558585,0.647816735212533,-23.18153578758122,35.22437681235206,19.65420651017028,1014.9292125353222
362,8.689908222928397,-7.112993779356306,-1.0342469356180861,0.027250029495484197,0.27738430483577714,-0.025609432100332147,2.509926694007438,-0.11309535451870567,-0.10250348830239786,-23.078473988357047,35.54417360669012,18.814667712941873,1014.9231492748386
363,8.837229639648587,-7.328269810021154,-0.8979210075959143,0.0883661192432264,0.09148758561270776,-0.14575180778129995,2.564338858658184,-0.4925047529589228,0.06897267000789428,-23.935783532399867,35.17829535333266,18.873845342286664,1014.9166627499421
364,8.843642576351172,-7.393105114820001,-0.6023689635663851,0.10947452214801619,0.16861771455089092,-0.10196257448249293,2.3730980077442307,-0.42962499631400836,0.3759169569399454,-24.09880208955146,35.222788644863435,18.941415020198775,1014.910300368551
365,8.718732734213846,-6.842939205720418,-0.9935813825543354,0.04211194367772761,0.19387956799650055,-0.08843023472586659,2.3877163736921303,0.07939880110284842,-0.18414979747938998,-24.168361793401992,35.56470054320048,17.968814266938132,1014.9049560388014
366,8.721141993320936,-7.183977209910357,-0.8339037510094878,0.04910208318165271,0.10505378471219487,-0.11569614728656978,2.383418320536765,-0.3737356813713996,0.053110668109644044,-24.40209152578266,35.05368988301564,18.326626641801408,1014.901055512932
367,8.974197160846229,-7.529697322714894,-0.851608130020811,0.1342657092391002,0.2447708244915435,-0.022001860338225376,2.5303241874504256,-0.6500516173703388,-0.11083653809081681,-24.90425812349962,34.8925400694933,17.434977558753737,1014.897878877621
368,9.134846716637549,-7.435390789621254,-0.8753422312267509,-0.04312029121645575,0.2880553112166063,-0.20891385121468545,2.8307874089551457,-0.4501398380027294,-0.17545753599678443,-24.074991583846344,35.24377477905899,17.164963876843593,1014.8963438830866
369,8.496510559061715,-7.087255715060643,-0.8766757342661353,0.0970341818639405,0.1492621887662508,-0.11522769896463524,2.1377947778325175,-0.22336830005112326,-0.08416093476401341,-24.11137021671401,34.86676067217621,17.894066060311005,1014.8960272915912
370,8.906792134984832,-7.47433034245644,-0.9458974227225527,0.1133221054506094,0.23202657931707765,-0.01995231481367729,2.5222743115876196,-0.5100199806588008,-0.1959188385139199,-23.103124704345447,37.410713792383376,17.09398033410395,1014.8958478290913
371,9.211785106553995,-7.631969811638684,-1.082328579905825,-0.046573825352909784,0.29037419913787266,-0.15325501093534247,2.984370668128008,-0.5610559560876579,-0.27562428599083216,-25.956108272498174,40.38310550754171,18.4383058151475,1014.8957684493371
372,8.445543724028973,-7.2270088598893825,-0.8762893928875484,0.09566329735399261,0.08414325351089891,-0.07101739007901584,2.2357423983863325,-0.22426444715035687,0.08225352455370505,-26.370236393096455,39.16748077375984,19.042666318087875,1014.8960609071233
373,8.938116338485829,-7.459575895126801,-1.133138324403234,0.12719815471334836,0.2210521525192257,0.003544113432068813,2.6772659018529104,-0.39773757555723055,-0.20835210359259515,-26.73734618784437,40.25758667880252,19.002671897463614,1014.8966039462003
374,9.04313563030223,-7.639586472534723,-1.0428030308535692,-0.031358466948337466,0.30114356462217257,-0.16078382520790088,2.9051321135623906,-0.3959642781371924,-0.13665984782658425,-26.957732582342732,39.724986489916276,18.582217381751395,1014.896670689319
375,8.223355865268196,-7.312279888695237,-0.8900427447864402,0.14523312064187016,0.020568317927762203,-0.08250889585297688,2.05323276776631,-0.22946678841326498,-0.037379957965027216,-26.20847136805446,38.86276519975749,19.120920388561956,1014.8964924701515
376,8.653448597796555,-7.6958613354017205,-1.1072627557395935,0.13477110283812763,0.23193860836934138,0.009372354084688159,2.606001136454017,-0.5050886165517365,-0.35752266478954486,-24.44863185747147,40.05337066882652,19.25805738208459,1014.8956205490415
377,8.863592962310507,-7.717235438710434,-1.039195255353556,-0.011093612135262026,0.26571768908983906,-0.17261125218105722,2.8359977952822635,-0.5153253419750566,-0.25312480920014646,-24.123048287881293,39.693774028884654,21.36114000099114,1014.8942420637215
378,8.13238586903896,-7.162151201294938,-1.0363687416011664,0.09861696356124255,0.13403349732560707,-0.13845317802144477,2.017498590167884,-0.05844506487174744,-0.08714718269878277,-23.08428724221988,38.83210525502007,22.39507970786711,1014.8932359847738
379,8.636336514350052,-7.456377046582312,-1.1431660989844854,0.13011907929517832,0.16607518605407312,-0.021241754860216178,2.423309263736427,-0.4021892110706161,-0.3777357928969035,-22.108615920072182,36.550945240839866,22.987165578097724,1014.8946864575888
380,8.842720184843538,-7.426076798118873,-1.1073711553307728,-0.028393140100626574,0.18194357318731275,-0.1783421317231159,2.5025327106084365,-0.5146515223922312,-0.3273579950058965,-21.007908951133075,36.435080499931885,22.80295560059931,1014.8964253295042
381,8.170459945794043,-6.947501929707599,-0.8989805226715382,0.028580220542632755,0.1336833509931252,-0.12600919950122647,1.7573744642575049,-0.0576438943226148,-0.014138610330008294,-21.83862850625438,36.25147655553617,22.737445887259884,1014.8976944343699
382,8.74993966114374,-7.165712775664335,-1.3489680743069732,0.06696858873607037,0.2770693271452967,0.0051310689640653995,2.3834824652655096,-0.3257646962117747,-0.5841634575968323,-22.812297456647517,36.00750140321607,21.386288161971137,1014.8978580316865
383,9.173343772359285,-7.500129936034539,-1.1973487930960482,-0.02906463870611456,0.25709315758109724,-0.2022670854621195,2.772970538055283,-0.6520613689492436,-0.6239078977544873,-24.26676726141724,35.25444969374411,20.149968634425818,1014.8963905345834
384,8.415674001344788,-7.194315387562481,-0.7062063792158061,0.03757090086114273,0.20694997107575142,-0.15499258093157942,1.9417339000054388,-0.3445953722877655,0.04241433539849826,-25.14315273514275,34.4014479477911,20.366867962416237,1014.8929491403355
385,8.627351474684616,-7.218637782145976,-1.0592628256591223,0.05453563188514424,0.2508929166683686,0.011043822628844874,2.3080669042017257,-0.30237800618721905,-0.40550485291528215,-25.51401296621008,34.43008292454131,19.682365354129644,1014.8871807269871
386,8.978009830084115,-7.622869128107254,-1.1149883479800622,0.04288550574488115,0.09784152134341903,-0.1662799828516281,2.5629184266104468,-0.6773175851649378,-0.4113431231319784,-26.410255575103783,33.67264612917467,19.504198084464274,1014.8827645571478
387,8.341582623680777,-7.4324246592056475,-0.6745306358097682,0.08338327377615243,0.09959485526283773,-0.08529620365459632,1.9851714453667473,-0.4387556471345286,0.1661624025386944,-26.368985151805642,33.43922784260698,19.942737605394594,1014.8793353138335
388,8.673094901249252,-7.324238045630727,-1.059370140767016,0.10289182672916575,0.2709411892995871,-0.03301356010487655,2.4310400994855543,-0.30974962048972443,-0.288141590527246,-26.515343685748665,33.22504977011204,19.515497159546563,1014.8757197284659
389,9.093967660629383,-7.65910032837057,-0.9667845162983236,0.03712475573081718,0.08304216627221653,-0.1783681165219585,2.765849775440578,-0.6543950336484545,-0.12049553990781955,-27.23102719271291,33.218328475288345,19.263371418261094,1014.8724417263477
390,8.659600213396946,-7.834497350093986,-0.528597899509079,0.10213904671427727,0.2403678770430202,-0.15225343935871838,2.356838036853418,-0.6437058741600884,0.4054301004586548,-26.670091621480914,33.50366387710997,19.88957524639047,1014.8700492968643
391,8.574476231026765,-7.268625849592374,-0.9754520089062142,0.06661645612267238,0.2934839203461536,-0.05419514163337219,2.4841712438368586,-0.17244136788104975,-0.15457260358210856,-26.523666408422795,33.91921252045502,19.311962857939758,1014.8683031970672
392,8.797175408809276,-7.532644840447218,-0.9136964298424534,0.08699355391496422,0.11712505019793595,-0.1334219670788284,2.609815748668639,-0.4326000166560758,-0.04028522137697314,-27.023094445149717,33.3296497103803,19.55218689417427,1014.8668021559151
393,8.817439847979555,-7.788110382281836,-0.8010365579106364,0.1567748162996153,0.3032424567148796,-0.10327855751434978,2.5544462859684667,-0.7537285465266261,0.36496335215925596,-27.25597334762487,33.113978947827455,19.764719511657002,1014.8648410498517
394,8.677301688156525,-7.440044731625457,-0.8440547602134472,-0.003761376631474689,0.2468374575884765,-0.1974637137389148,2.6694946203989187,-0.2133395654744591,-0.1619628204218651,-26.49140766167838,33.98507072733674,19.129426107454915,1014.8610188662984
395,8.50433799556105,-7.577312724790773,-0.7545142532659698,0.06644581295852221,0.17187300309008788,-0.13773434016801228,2.379878223805617,-0.46876120670613286,0.09121513054061614,-27.047616774666484,32.94410419846139,19.919452650048544,1014.8572399573271
396,8.727333371918236,-7.686941595655148,-0.8504099475173528,0.1617495114608743,0.25523538690573866,-0.046120195067725286,2.529456494412184,-0.6579011131134425,0.0390517934321276,-27.546072575368626,32.317498895599236,20.16681819775654,1014.8544611420601
397,8.968346445131802,-7.601965424985825,-1.0850976533903767,-0.03187780535575774,0.22107276976330612,-0.1885258563805714,2.695809316648348,-0.5850296886515067,-0.24446827728002118,-27.64293065115949,32.281493667252306,20.151671230951,1014.85226824571
398,8.094528054161772,-7.214366560214825,-1.0643171918506282,0.06259967646362793,0.13599620942469207,-0.053723567360604796,1.7599456387372507,-0.288648311980207,-0.029614704466875474,-27.498271830535625,31.885885972153,21.00672580975313,1014.8506677739308
399,8.1866095029743,-7.630803382714441,-1.0813989637742147,0.21406872967098406,0.11426732909441063,0.08614631554956997,1.9165827472301389,-0.66288360703692,-0.1396181685276981,-27.38626425253518,32.2195669191785,20.637076603842303,1014.8528388103234
400,7.930631286762527,-8.226020634742502,-1.122306657913978,-0.021194139225996417,-0.004526451670349485,-0.029216615634451618,2.1138007026219614,-0.9550561884538058,-0.0911153411903422,-23.08489935588059,34.4241741726019,20.190148665397242,1014.8544233277483
401,6.955812615490446,-8.409991798297357,-1.0855387583643419,-0.009844803904355498,0.08599665962854794,0.08079753825630166,1.8046409720358945,-0.6496492447211368,0.14149581558768218,-19.82394954821229,35.54422525731415,21.47812767882414,1014.8539307444308
402,6.486412381915288,-8.688570182292603,-1.1737493155145982,0.057236945285730194,0.07641116133260235,0.09457687284110516,1.5488972174039977,-0.8402165693115632,-0.03775254433387465,-18.78255644058678,36.79946532643283,20.99529774148312,1014.8533445744947
403,6.372508800945345,-8.690946624968012,-0.20448440299644155,0.25224092394473274,0.20704534682228865,-0.4834477153084632,1.3903562650647467,-1.2613695331935606,-0.11891293094013829,-19.945009736036358,36.33814204021307,15.85545149252148,1014.8525251705789
404,4.545584351992684,-5.364189721920937,2.038781823536365,0.20911346730003647,0.14748631199881873,-0.5919407040056772,0.7970604126789743,-1.1756172213530207,-0.2107016877701005,-17.989484152884337,17.492169040520903,2.7500552261086266,1014.8515355422919
405,5.384688763213633,-4.956033433947297,2.500740465529544,0.08796260084923536,-0.3834443213530953,-0.1438098683250068,1.0983673022193232,-1.0054183340357603,-0.1365520894506026,-21.996857673073734,14.300835967128073,0.9437798544625131,1014.8496178269966
406,6.004959651008576,-5.844577465704683,1.9468642132454177,-0.06764500195916205,-0.33289923201984545,0.09813928025979843,1.1355685196135696,-1.0698775707795645,0.03242187967092425,-25.072249915761198,18.234709411597336,5.526697288326896,1014.8482181944008
407,5.110269442700587,-7.1062589134144645,1.271611060866796,0.10992093249112923,-0.26309982432490225,-0.02876864703542531,0.8155703436379869,-1.2376120933750505,0.33406653753182197,-22.337016666890023,23.12212641463173,11.01518576900056,1014.8499171542987
408,4.906361010006685,-7.950469866339805,0.21174309278384618,0.19418082279142934,-0.17348129073932336,0.018797014098180277,1.36692516773638,-1.1696861844031,-0.2001852215267121,-17.578853192914227,27.954298605072527,14.142369972256082,1014.8522909752477
409,5.122702978132989,-8.849942229233859,-0.12676775343405566,0.028228445091486365,-0.17247476156114616,-0.19232733282208003,1.5431943258932814,-1.6840856348592146,-0.09820634443694719,-17.16626789050471,30.18374484934875,16.79726668876767,1014.8543120205557
410,5.269147921467989,-8.634568576730546,-0.16966597321111762,0.05943918788792901,-0.07354672309339574,-0.18551052696692666,1.0280761158462015,-1.1356199119375603,0.16054944176584646,-19.164976954574335,30.701404401234292,18.93237748530157,1014.8554985410849
411,6.264338948886277,-8.512763066078223,-0.6330887070614738,0.08347719978073859,0.11095581015822989,-0.05392737609732656,1.8017046073082792,-1.1260237091166494,-0.24071419755347995,-20.51314446969669,31.832782397223504,19.229787656821735,1014.8561375845047
412,7.014260823408277,-8.62486863953244,-0.7935815156179649,0.0628306893851654,0.009473092531842878,-0.20324062784346456,2.179891723204406,-1.3101761151445466,-0.3479944754844153,-22.56894083778306,31.707343499338815,19.753703603203515,1014.8540483086107
413,6.786149783744246,-8.064837421900549,-0.6351731411246323,0.11217854789297488,0.055640973478418745,-0.18235479049429817,1.5636696336056608,-0.7472525340220745,-0.040413473149829016,-23.825076141848523,31.54317355585038,20.598172778467482,1014.8499675156572
414,7.486843899477132,-8.194163681002598,-0.7726720144208227,0.1386624154400145,0.16400951233851502,-0.060664742931974255,2.056843387177562,-0.8727565029964002,-0.3418043532377819,-24.839406651815338,31.736650565118556,20.083432325766882,1014.8450518840742
415,8.072009540396962,-8.236413907509316,-0.8089526103129046,0.08685414553335839,0.06341311598463238,-0.2221161270937672,2.4408347444268417,-1.0562213330268877,-0.3124615028847948,-25.760179396422565,31.168140611799636,20.62546477803567,1014.8398360094097
416,7.774400986982231,-7.769758071857663,-0.44476029234192516,0.0762168995559942,0.1359245107065955,-0.19501653493162727,1.9777333285592575,-0.5586612113514141,0.20846431474888416,-26.017852043873116,30.750382238217806,21.527393209125993,1014.8353284504726
417,8.219067901955167,-7.544295898902922,-0.8246133670539515,0.07049095119380816,0.22812544552234065,-0.03780434555407311,2.3686456658636463,-0.39245213784902044,-0.3023213400901912,-26.944177397104227,30.74113747827044,21.111937307216326,1014.8320386365826
418,8.659222178961818,-7.8125512317733055,-0.8008571003591096,0.07655115010371341,0.09432088928377377,-0.18996607507848212,2.5891740164134998,-0.8011373173590046,-0.22995680632327536,-28.08984498297371,30.022592972959597,21.13279904515481,1014.8298229135123
419,8.320634354413942,-7.537373531124068,-0.5947640838043461,0.11559457110173782,0.14628245971885726,-0.13441037973838485,2.049654074127849,-0.5567392790804314,0.07082686093893747,-28.758837114064097,29.63566348582946,21.424560628272925,1014.8290612314381
420,8.497999189442234,-7.197565600115496,-1.037366841656584,0.10416809682130496,0.2644564452148046,-0.03265767799742579,2.2281375958858596,-0.23544476072534376,-0.5841034451042824,-29.393170919152343,29.921935795083044,20.464516681593135,1014.8293607721527
421,8.797158931000634,-7.424035862571606,-1.0239943460474739,0.10340678192686921,0.11938001771529813,-0.12532475643458796,2.366730755810066,-0.5030482620187828,-0.5582199801892113,-30.483098704245116,29.111530826445012,20.23668339967517,1014.8319702725576
422,8.748573299655401,-7.726393720721152,-0.7955078407715463,0.15681267474465105,0.2258608551535681,-0.06709908744072952,2.273069647622508,-0.8360788733476433,-0.25905668075734606,-30.751733075103573,28.865967733055616,20.546712135792333,1014.8356267632521
423,8.631010231668949,-7.197755881629296,-1.0919368161728675,-0.01797491235482032,0.17091054960578467,-0.05562974533349743,2.3160046384843125,-0.15114999318371913,-0.6743202875212051,-30.023423492705312,29.53545466021374,20.001153546600644,1014.8392023446752
424,8.68790985992646,-7.509391746113913,-1.0334527691136395,0.04606137333034384,0.14484224950980548,-0.14795534956528583,2.338760852150071,-0.5492440171700268,-0.4447822246533173,-30.605140817371357,28.668234759373547,20.28110462094568,1014.8428423363578
425,8.733290760383857,-7.861961409485289,-0.8707599631243487,0.1341111892974131,0.25702087080242453,-0.10504214997970977,2.35077369490451,-0.9243740869853838,-0.08334582871158225,-30.7162383193015,28.261609244280077,21.053833038716007,1014.8456021613491
426,8.84171450145999,-7.303281214046125,-1.0814338122036287,0.0256723555481628,0.2057048542746423,-0.1655073204304766,2.3837841610111443,-0.252344639912918,-0.42255600251788317,-30.971785523741367,28.540314208625688,20.4011427787093,1014.8487499779404
427,8.642304099021587,-7.433044992382618,-0.8303988950968342,0.016867196451865997,0.15947233896115343,-0.07274038516287663,2.1592147873165106,-0.6369222464171694,-0.0991868362776065,-31.892955523568634,27.26907696065797,20.487224392652656,1014.8515215164775
428,8.519068156363218,-7.796641651187297,-0.8904182114349588,0.17325422320041844,0.19340208661423292,-0.04523166645462863,2.132895701367929,-0.9191624112017354,0.06149939573080279,-31.473630453939148,27.775106409487417,20.481935164998294,1014.8541418922031
429,8.513832434999737,-7.218826640327837,-1.2255533335843642,0.07769322903890916,0.15907308514679386,-0.08612651008288223,2.208986234216974,-0.2358611445895764,-0.5315948196029426,-31.505872311136105,27.96488050638747,20.118062559829458,1014.8565698152012
430,8.59301049045863,-7.400106953097747,-0.9217824953190654,0.08574301864093355,0.13255926186063313,-0.040480131637375336,2.175529601933867,-0.5349733960695966,-0.10061687499178062,-32.08051056915931,27.16763602323645,20.465507609077076,1014.8582386200464
431,8.700016852222811,-7.645856421242098,-0.9809351131678881,0.16340790332603922,0.15481051797083126,-0.05441238184505459,2.304336037860887,-0.7391939331369406,-0.10388214195896328,-32.082663044083446,27.333258497305895,20.717169587751624,1014.8594565868964
432,8.707493106999582,-7.173854385607708,-0.9705953195655157,0.018173311793929725,0.1621347537571139,-0.15203008583878327,2.479307955385142,-0.14024693599038984,-0.1453312598845353,-31.603763865162666,28.087213363707505,20.481708663789775,1014.8594385980327
433,8.626320455980943,-7.264987265955837,-0.9220498672579835,0.09450548445657313,0.09588344297156037,-0.06903659637139277,2.259868473889473,-0.34924959498504177,-0.05612859385794598,-32.09332542034352,27.375041406625336,20.7226877432168,1014.8569108549523
434,8.893520562171402,-7.401464273579186,-0.9901839069867481,0.17067587519927857,0.16395127370492915,-0.03950086791842708,2.4120812975953476,-0.5761772686544051,-0.16270865119759093,-32.37153580142814,27.328293599814156,20.562395910334484,1014.8526959169202
435,9.058950146474295,-7.146130106930121,-0.9592804332821341,-0.028284449739275574,0.1692950869451462,-0.1832698368631939,2.745798817662165,-0.16124910486165261,-0.27835247099451904,-31.67390169750129,28.29884844948444,20.094649148874193,1014.8480943686079
436,8.657311376045456,-7.070017095777124,-0.9457874986656108,0.07405780794041983,0.15969761713943473,-0.0641000739830947,2.3980582681963853,-0.15958439423245763,-0.03278739165020145,-31.814236910592037,27.619924761499462,20.47071072391768,1014.8441794353599
437,8.870093911304831,-7.782808068584517,-1.0123796911608336,0.10717036974765018,0.22188837621776453,-0.10666993937029151,2.783220930975634,-0.6917252896467929,-0.24774979364261188,-30.939299601660668,28.428995213608758,20.5274818737519,1014.8407656238516
438,9.04775892063749,-7.8145164182292834,-0.9784392392114283,-0.07222233845658554,0.2626350418835754,-0.23301652633438388,2.960626959724807,-0.606538908122165,-0.32101537184932355,-31.01757754762589,28.710775485415283,19.92613161772459,1014.8359655898978
439,8.330537845753215,-7.176337117309684,-0.8459146681225637,0.003751459710687577,0.18762466188869453,-0.12051005031166231,2.2219622339557477,-0.03666959732058506,-0.118889110003212,-31.654411282889946,28.17971375726659,19.95771053894392,1014.8324417830618
440,8.737072543213973,-7.535683664099492,-0.9128960263986236,0.0863737987880553,0.22811462543410319,-0.057606834644050364,2.506899147663357,-0.40259823747686124,-0.27805086048290817,-32.6441114030249,27.720500660141365,19.240650902389028,1014.829375298508
441,9.01128458071186,-7.7228578939483645,-0.9294183526289298,0.03703142159412888,0.16855619956428397,-0.22106980681433686,2.7191666694363277,-0.6865138133163844,-0.1866177091185676,-33.10562546913694,26.974578112928025,19.52686146908846,1014.827137243805
442,8.593127524975332,-7.568367726401714,-0.6106974011597116,0.08658739461150994,0.18982671262908116,-0.16477951906831095,2.108039544273626,-0.46125870722255063,0.21068820756736925,-33.40487149498701,26.36830024093429,20.135969520186997,1014.8255038134827
443,8.636606006911082,-7.11144170048301,-1.103577615893529,0.09137298953501619,0.2652232723658792,-0.07077540870703469,2.3212942056151995,-0.17473359751516582,-0.2773772827112124,-33.44347064356459,26.62998027749988,19.875531886324154,1014.8259604278695
444,8.894595174102937,-7.312758075081609,-1.0008136022874374,0.06853029775970253,0.1312552271925357,-0.16650684225845752,2.50552002694905,-0.5334966950924487,-0.16755384985141783,-34.26914961428391,25.65980394392394,19.71595828966411,1014.8286227017459
445,8.778031592343948,-7.448217715512894,-0.6750623879445687,0.12600314329424353,0.22292379160178244,-0.1053917234375465,2.1876761644413403,-0.5595422519923509,0.20204165238260144,-34.47896551492464,25.254197618120994,19.887038804421344,1014.8305657457969
446,8.711609817630302,-7.007461187475851,-0.8948811415111265,0.06749966690712658,0.20635682869072688,-0.03031490887348892,2.3713078083140102,-0.08435912444974647,-0.1275169742330535,-34.03401392645755,25.847906240457643,19.637311113937912,1014.8317161396216
447,8.770867926917912,-7.40210605644134,-0.6590045906226946,0.07799187250229861,0.16498421917406372,-0.14979419209418268,2.4546282838123217,-0.6000242290940928,0.12245803202239061,-33.82520729545453,25.54291853308692,19.812954559848134,1014.8320816232566
448,8.889715624733675,-7.73957831085263,-0.7635143981180911,0.19294334327442425,0.1883128869136979,-0.09789617464845374,2.5548775552026295,-0.7763428323860811,0.16338132418236098,-33.30142956235874,25.928879323189154,20.290447496871966,1014.8302870773207
449,8.781812449597936,-7.285773495846953,-0.8056998702554754,-0.023630265447401738,0.18384863959872158,-0.18287614412107855,2.6236119039433703,-0.17976947961473067,-0.029465458412197915,-33.02163061787476,26.985990487696025,19.48071321156668,1014.8253086177597
450,8.596290033959104,-7.517316238454634,-0.6486052440588572,0.030486964423338696,0.10242404133499279,-0.09833006481605805,2.4059682436336165,-0.556367283334059,0.2642101137932883,-33.60805796770888,26.080139335475256,19.774457528301358,1014.818830915376
451,8.787922589755594,-7.833516386677686,-0.8644782402745177,0.1552983753203152,0.20056383751189388,-0.052560640992392875,2.4461172669293667,-0.8504036667062711,0.02303565934989657,-34.316984830681136,25.660887570023625,19.566613406507297,1014.8135672146055
452,8.746821619008587,-7.357104520464511,-0.8849464946316146,-0.021558470192228618,0.19128130508233443,-0.17501143615098985,2.530387243717113,-0.2563229030418702,-0.07707761157443399,-34.298314561571864,26.175389456599223,19.15487592492323,1014.8087671561341
453,8.613725729885722,-7.46560781712484,-0.8373616883673235,0.020749402539226164,0.22974897657559082,-0.07236574585595751,2.391230137417427,-0.5013177257040924,0.15985584602636832,-34.57683655081938,25.386072543611046,19.208156850222185,1014.8043054841144
454,8.661610201786559,-7.875293186541421,-0.9051412560385198,0.1539664561372022,0.17728635686543248,-0.06544523567169125,2.5217542846687757,-0.7121301500616459,-0.04225750873979217,-34.372498586676734,25.724077166584546,18.897698961211596,1014.8006369021268
455,8.861515709976896,-7.651097672044937,-0.9706807417924153,-0.002477918510820798,0.18508615782194843,-0.2018069247796237,2.707181591155593,-0.30608719328597184,-0.17597281115158617,-34.174617458173415,25.9116007038462,19.03705798277714,1014.797959410352
456,8.271073792020708,-7.4782264555928055,-0.780572103660838,0.05840193460716231,0.15838304619928656,-0.08538344788336524,2.2093590437868524,-0.3526037563100075,0.14125928812778013,-34.40210490121071,25.098038842042385,19.15839620485595,1014.7973244323949
457,8.475392042110633,-7.952777364236294,-0.904932958148075,0.16673947024579075,0.1465110552106482,-0.05757622002156245,2.5487244434286525,-0.6980284409167786,-0.014423795965216535,-33.85671448876756,25.871490798723418,19.059242643450037,1014.7973761855734
458,8.728368897619516,-7.978013743109429,-0.9407709147298912,-0.032520618738034274,0.23692635890308136,-0.25211485489827296,2.9262009232732935,-0.5791536748897902,0.06662130613179869,-33.40023771475263,26.291669410940226,19.099865840410487,1014.7979086133332
459,7.994183383702949,-7.552248146474057,-0.7214081967605221,0.04589260384398276,0.09644908814887151,-0.11055300795503398,2.1509252278427016,-0.3078789791711569,0.3336397432471543,-33.41671518920563,25.765275934534476,19.893017991747083,1014.8007086167735
460,8.523299665867142,-7.83117035644382,-0.9019913069227987,0.1374118164253696,0.13346498317019867,-0.06106574848184848,2.6171043876295634,-0.6023051357546809,0.09619938320048108,-33.68465269282864,25.694428899978856,19.790991595021897,1014.803350037588
461,8.827475526458954,-7.830184094947264,-0.9774718997054427,-0.009345220079678529,0.19487268725233972,-0.22680304301972534,2.753092260698998,-0.7597900156986822,0.03989025207376694,-34.44439102890891,24.683147123862963,19.73413714200116,1014.806143442664
462,8.125297553631727,-7.238491868273207,-0.9470077164150253,0.07736455008097594,0.08781789167164823,-0.11547069673895856,1.8490748060208495,-0.32276801816397604,0.1461056575914424,-35.10128150643544,23.715464770442168,20.01444210735714,1014.808594450386
463,8.622503947472115,-7.6511022872561645,-0.7033843436777683,0.1281416079787373,0.2180695144353747,-0.027763697150866545,2.4357112103665752,-0.7209238155674482,0.2555712675585837,-35.12738270891859,24.0862004875436,19.331541246805408,1014.8117848735736
464,9.014751090378377,-7.860667876377827,-0.6844142397579351,-0.011925087870614942,0.23275219684284207,-0.19489911998571666,2.861505848511393,-0.8287358757467697,0.30275062024181637,-35.249974032778034,24.05532065720234,18.980047626113024,1014.8143608472087
465,8.26104854698013,-7.2938519964823465,-0.7163423137284585,0.059538948949726736,0.04095371845440299,-0.10032428430686774,2.0135456211471023,-0.3213727974982432,0.41767721666585256,-35.52776003986631,23.48415778712478,19.68962628645656,1014.8163438350814
466,8.58135082320378,-7.558845681908937,-1.075397750244358,0.10683852473466206,0.19574202566732618,-0.06242923516174931,2.481616869534446,-0.5482416093989226,-0.005635364502339757,-35.278800628593245,24.06218653126947,19.423424500352738,1014.8186980208654
467,8.982342757778289,-7.809918329522192,-1.1472880950752908,-0.009563722368714847,0.06187476140641637,-0.22853420721605874,2.792231551205054,-0.754475069944618,-0.10687326649541554,-35.60051452044202,23.812674628525077,18.930483022999862,1014.820416208736
468,8.354546670702621,-7.6654231466325795,-0.7761207848439251,0.050173176909363904,0.04750114353859953,-0.18325966302016883,2.1794419288264852,-0.6018850597409586,0.42158064542513496,-35.1919932817477,23.84266053881784,19.793047211166805,1014.8209280983662
469,8.573111130986216,-7.531057038663084,-1.0651400891951086,0.04875003062722867,0.15772301630178806,-0.10377042228377424,2.4709960842292875,-0.48552516875409185,-0.03716322622837315,-35.38657092025618,24.36390198176604,19.046548745593306,1014.8201062565954
470,8.905425969951105,-7.934007823002143,-0.8788716308339672,0.04457438639174386,0.07133545085220896,-0.24236639054290277,2.7915408876178844,-0.7940344278778866,0.1848602345891784,-35.263214418451454,24.342119997278814,19.036006848217557,1014.8183109992467
471,8.675223639934739,-8.075810128901406,-0.46043331742040783,0.1284854116877241,0.12915815383086676,-0.18025204764287567,2.4723267958166586,-0.8671088223289272,0.6415890537351523,-35.06441570524584,24.275786679186623,19.348027596874598,1014.8161970270924
472,8.488344062044469,-7.472283244888967,-0.8144215424040162,0.04498461847917905,0.21351335383810305,-0.1135274672750277,2.4425243596326855,-0.3346023527650882,0.12964101523060434,-35.22421866258735,24.624386309085807,18.6318529888867,1014.8116448876032
473,8.646199107439344,-7.773327710762053,-0.6797525786209975,0.022626177176121167,0.1924962349453681,-0.21984022729617328,2.530598628759113,-0.6602280324151956,0.3672820214759316,-35.4110240486306,23.7404196842787,18.905015892626317,1014.8083225368742
474,8.651788577116177,-8.004040138370268,-0.7553404528881391,0.1563128423096718,0.23842019454374944,-0.1704404262665524,2.4975869357213947,-0.891737844044661,0.7099548775700757,-35.28552156542719,24.189890878537145,18.97943426414596,1014.806062535122
475,8.633411576770776,-7.391553578474188,-0.804985619431929,0.026786596531825607,0.18960470911409533,-0.2065332942146378,2.648228140701177,-0.1873117706310773,0.1308662029640174,-35.432266950503355,24.976461267111553,18.701269202475903,1014.8052789375411
476,8.558585632641323,-7.691378271341333,-0.8611805017580971,0.06652833807563246,0.13649780051944446,-0.14579924676804396,2.4955877659388315,-0.565312807625187,0.19628382854203985,-35.670529976223555,24.12023874901139,19.142503513467407,1014.8048718290034
