Time (s),Accelerometer_X (m/s^2)_kalman,Accelerometer_Y (m/s^2)_kalman,Accelerometer_Z (m/s^2)_kalman,Gyroscope_X (rad/s)_kalman,Gyroscope_Y (rad/s)_kalman,Gyroscope_Z (rad/s)_kalman,Linear Accelerometer_X (m/s^2)_kalman,Linear Accelerometer_Y (m/s^2)_kalman,Linear Accelerometer_Z (m/s^2)_kalman,Magnetometer_X (µT)_kalman,Magnetometer_Y (µT)_kalman,Magnetometer_Z (µT)_kalman,Barometer_X (hPa)_kalman
11,3.107253433528,-10.642002841461998,2.3760210390679997,-0.04387966027512,0.0769874496372,-0.0724494440639999,2.4868508601,-1.698965319638,-0.1125932916399999,11.1648734379276,43.187724761199995,-4.415009765624,1006.192017
12,3.428805770713209,-13.134409904474136,2.294127160104565,-0.16220765232314244,0.013130014798495071,-0.8634093379444372,1.1426265703989276,-4.287892249101256,0.23843626583206531,1.5896450642773914,44.89969609467596,-0.18044814928004893,1006.1915635301681
13,2.1285105421212283,-11.840407181086674,2.1566623474627074,-0.12983432698711295,0.1534306250795956,-0.35451665118653664,0.15655794536616907,-3.3216569563376264,0.013504544777119848,0.0132757987684613,44.813211046502026,0.20107673422350064,1006.1925161364819
14,3.154655735008858,-11.931934391423516,2.3006916599468092,-0.09358344713863781,0.16071043368801496,0.09195930797130653,0.8961816869429227,-3.1298815656408117,0.2639517618977505,1.2887420014363478,44.61619705940482,1.03059485472808,1006.1920906118645
15,3.1100070902920804,-12.487483179844734,2.3716021634543045,-0.09207143737579351,0.09983344843991275,-0.2674857860612304,0.9434262560198508,-3.69335513931201,0.269375482544209,0.9540668552634913,44.54352382734417,1.4978377727163816,1006.1908235801884
16,2.416894355909888,-11.864563458638765,2.1887246177364497,-0.08811906411662973,0.1879837366987616,-0.12877951220067194,0.07482002866116955,-3.135406167148338,-0.010228249147591961,-1.3867788557349603,44.5512407125998,2.402093895609171,1006.1878302886655
17,3.1124877132754185,-11.875218155080793,2.357346668520613,-0.07093096366187565,0.14609140563918074,0.10294854197694847,1.0582490256287025,-3.1080851492241592,0.14963047828419837,-1.2430558944383634,44.42811566692246,3.446177508137147,1006.1815211273018
18,2.8231725220733765,-12.383547485519907,2.472680073517223,-0.06028312839341094,0.1142647876207998,-0.17207408906039262,0.7292272435070182,-3.620142987907435,0.23923553140482456,-2.672750849912104,44.33396864035268,4.499981047569166,1006.174534026752
19,2.400769279872557,-11.913937163767264,2.2441960751511174,-0.058576759500633624,0.15641167084222002,-0.07355868161933776,0.14070102585251232,-3.1952301388374442,0.12613536492296687,-4.467828985038514,44.18767517464844,5.406477440991388,1006.1676519391127
20,3.178618643075488,-11.833104703531422,2.2468422932337266,-0.06414410834175906,0.11312694072807133,0.10401000263316837,1.1599010210900638,-3.018411177230958,0.24184154117025639,-4.187736419592382,44.02858149022315,6.3658078184774,1006.162693090382
21,2.7365282279493512,-12.3119746977887,2.385285265466524,-0.02048107240661564,0.03357035691043561,-0.11091360537059075,0.6154918844844379,-3.516675204445024,0.5367582605347773,-4.898757385251301,43.83099118565496,7.246056481762579,1006.1602370009915
22,2.6348730027618075,-12.447166037230092,2.29606585173483,-0.009900010891679243,0.0833411854441852,0.05231937499690331,0.39161791136171686,-3.6404062461848694,0.5106021837282091,-5.545945380945668,43.94239941278168,7.450424221039479,1006.1629339703306
23,3.3260314349213185,-12.008542105088557,2.1535955019017656,-0.03695845801928184,0.08107087631104802,0.017963477330782185,1.3549666486004228,-3.1729970486268684,0.3527735419345327,-4.380630331593441,43.946363263086795,7.35478377275054,1006.1667970933742
24,2.8542577571539636,-12.212661127060487,2.2427983677838492,0.0019328489198082721,0.013391916076457192,-0.09008458750226145,0.6498025482037656,-3.450137537232979,0.5326343514427435,-5.301015077018854,43.76237186586149,8.021981808501874,1006.1715111368119
25,2.854567032639298,-12.691785611488275,2.3928206823077955,0.006286126983286463,0.07608075433870642,0.08852958190058977,0.5781620843262537,-3.896667571525014,0.7138156387360333,-5.122005499027829,43.84479102094149,7.745441117401727,1006.1765166782207
26,3.439339306172835,-12.447220916743042,2.243167987156454,-0.026298917798424144,0.059890024752394966,-0.05954105003386245,1.5292385550357799,-3.679018643141041,0.5382662472278938,-3.4166609101675665,43.810998216935985,7.498065922926741,1006.1801688747809
27,2.87184445602104,-12.43502508080183,2.330932815134232,0.012601242304424623,0.010473123316255648,-0.09605212680413405,0.7059440781573353,-3.787006611058095,0.6664949389804872,-4.407739818437846,43.66652665739813,7.642820307648532,1006.1814117501424
28,2.9617586513095135,-13.05371893468314,2.5316516403015408,-0.005643222694538517,0.10205412057993858,0.1694305103453872,0.8761224169929356,-4.403489603380643,0.9153912535887834,-3.8682050514786512,43.65119249328433,7.717228934632074,1006.1809582014617
29,3.518252003351689,-13.31231141877171,2.4393699219834084,-0.02854434518663761,0.0393130945133415,-0.17711723025621873,1.6345134290204941,-4.631080695189438,0.8333284305205252,-2.758416635072038,43.51791474680931,7.57180501252073,1006.1765255696363
30,3.1774480966006626,-12.98507800608786,2.305156056889297,0.009619427382876269,0.06102292102425562,-0.11746367997582124,0.9695003078686348,-4.407243837512934,0.75657718121097,-4.041358736357547,43.39457852518304,7.413851654201518,1006.173249182372
31,3.3293201465763698,-12.977336071822512,2.2798592559472053,0.02079656967508532,0.05699753340305743,0.17417639311267064,1.3570905512127498,-4.447766152324338,0.7664567170304976,-2.8880986426079582,43.32488804046668,7.355737306452944,1006.1708992956551
32,3.2402025727828847,-13.521619920117548,2.445956908445581,0.023036814771526037,-0.01584361559461054,-0.18247302010039423,1.1724482546401525,-4.934336499567845,0.8512534787912162,-2.9065793122422936,43.316084130256094,7.395661695918779,1006.1715338154158
33,2.601215484005853,-13.31503151799088,2.3548740223646156,0.042767865189755616,0.057622290854795165,0.03958789394859347,0.307792571961662,-4.702851564538128,0.798852912142382,-3.278268723113904,43.54862564837522,7.302930808082308,1006.1729656964415
34,3.383608495335797,-13.01053796320584,2.360289393197285,0.034245920212688616,0.013323819528412398,0.05937775173574179,1.4291769956883176,-4.345558756534708,0.8729548397401716,-0.5286696043209544,43.4391089448876,6.7514516260130595,1006.1740107439352
35,2.773114901500575,-13.214216070950254,2.418228314483397,0.06161346162346333,-0.05644465831697684,-0.07994538415495382,0.5552097068393108,-4.619459466364695,0.9748229549585563,-0.5234313258603552,43.53833063860815,5.549705064250555,1006.1744230717565
36,2.9178822200872534,-13.60372030938346,2.6443875324236634,0.05085671373422148,0.052968038401793316,0.1753631305794477,0.7112565953624315,-4.992740929460811,1.1364469155374775,0.6096035029657522,43.54090986633601,3.9743599448720213,1006.1745178772337
37,3.5051593776996226,-13.636933846589345,2.5156670574966524,0.00964875036063953,0.00799727304534592,-0.1626317600005754,1.518036996968901,-4.914667203517382,0.9834600251507025,2.426533494803479,43.3608431951689,2.5726961011685425,1006.1716809995028
38,3.158690936636007,-13.190221578554661,2.429549018474169,0.05274555679393918,0.03208281344486198,-0.12049260894391384,0.8300516096037969,-4.651284889375595,0.8748411295727195,1.2323761172835719,43.58137512719308,1.385087977342268,1006.1679614885516
39,3.325081439628993,-13.023193683100653,2.4613757786714925,0.06377776521730141,0.046615435095841436,0.1576669638757091,1.1980146464832067,-4.485971949217,0.749284652049558,2.5855568404465474,43.447174723875015,0.35271703524158915,1006.1642780465835
40,3.2014653950345817,-13.479038971620705,2.6218910435866905,0.04940840847295349,0.0012666739435542584,-0.17461530869633923,1.0585711606047215,-4.931484090625244,0.8644602317084344,2.8883839723272406,43.49120070328044,-0.5619669879513092,1006.1610950534229
41,2.6970661004530605,-13.050690732164297,2.542812646946409,0.03204727088675037,0.07262763690299653,0.02228244452270195,0.3538942782915345,-4.4762386203663205,0.8552380534372999,2.285779933447225,43.696210673151974,-0.9511793838490294,1006.1582773096593
42,3.2682251973179985,-12.883886878516654,2.3895986566863456,0.03113903199727075,0.1019551940860449,0.05638367530150734,1.3180435588415604,-4.291536995855403,0.5513194782225248,4.2824072036937455,43.322727281545795,-1.7129686589730388,1006.1562207969021
43,2.7609825830676114,-13.11693580149697,2.2533599148943666,0.03782598330481523,0.05994282906315811,-0.10051236144114742,0.5650084999484319,-4.595699409768518,0.404261396755349,2.850730874361811,43.67627713815265,-2.16945617443593,1006.1563688973749
44,2.8883792634324386,-13.450927495524134,2.492676371571457,0.020564674800423125,0.14877735800266237,0.09594108575401436,0.6304964456499542,-4.937507914316467,0.44587130846999234,2.387906438081947,43.89569578061372,-2.4787736137930407,1006.1592801284453
45,3.577553554121538,-13.277707791003104,2.5321629804895314,-0.025840717951424754,0.1330957450361761,-0.11903935117146885,1.5945397941918484,-4.712409751412254,0.4300440970910844,3.0027535882903202,43.80353094899005,-1.7134221382782555,1006.1632805669351
46,3.1188042834812006,-12.922736695628878,2.490895002874053,-0.0024563124146035134,0.1503109190564762,-0.09421953517123373,0.8365209722590602,-4.446132238226763,0.44906921390462434,0.5099722903625614,43.84967707995826,-0.7841481145138567,1006.1681994180828
47,3.0226862134325403,-13.340159178980837,2.5653018083855637,-0.014879885352380148,0.1916392522747667,0.14988883642613976,0.8355025519679996,-4.814324088256255,0.6346930454570053,0.07564446475416148,43.81349406643382,0.6747348835171039,1006.1729848522739
48,3.441402147173285,-13.444314957596697,2.5089149802430866,-0.04655120800297728,0.10963304992522095,-0.19949766397902435,1.387907699169343,-4.847474571573436,0.5885684495199144,-0.03212540678958456,43.4728738249192,2.5905831557773737,1006.1770339934873
49,2.7513084665307996,-12.890124148551243,2.3993226777126426,-0.031778000345683725,0.1385519281405248,-0.09123520220031035,0.48002809634432186,-4.330311303501898,0.5625282695411192,-2.062416931247367,43.466301385462216,3.7450764611092984,1006.1800921635654
50,3.3135277088719994,-12.783033983524835,2.4637073707320267,-0.002471365742267903,0.12691845876688773,0.1574965866445508,1.1988990849293755,-4.176216736065991,0.6074740678261931,-1.671304213696407,43.72983129257616,4.040978587238009,1006.1823241499998
51,3.2296265365399086,-13.171380104479942,2.5597640953396494,-0.004277963721623482,0.045773569661869865,-0.17507709594613818,1.1424193985524511,-4.522273278787664,0.7382882757484315,-1.9826863136981019,43.913881751488475,4.581648110992996,1006.1842419484245
52,2.6696202744684605,-12.680525770079075,2.45209674388751,-0.0048180042582438125,0.10178728437299925,-0.014793389078512215,0.3609530939194139,-4.048790399548408,0.6874933951691131,-3.267609413921379,43.87836300954286,5.22107644215436,1006.1856416416917
53,3.3615349767215843,-12.534948451670044,2.429855672844486,-0.009249660712992151,0.08748593479320596,0.11103086497922524,1.3585969937157962,-3.8319957606912287,0.7081508617765321,-1.9423075518016095,43.56248289913227,5.7201037824007255,1006.186663199128
54,2.9360259766375414,-12.96096393111395,2.643779612219391,0.015171047735182165,0.02824172544433158,-0.13934034724951058,0.8220550114603221,-4.295732418362396,0.9267154842141818,-2.9302097505130353,43.493375289445034,6.154352185321817,1006.188398088525
55,2.84458253114009,-12.907962141680681,2.5624549231297937,0.028676551186860452,0.09107129104487303,0.027920619555375947,0.5228814948735641,-4.223863226482071,0.8646499849207792,-3.7690565007192487,43.81360186113055,5.944571678735919,1006.1902618723151
56,3.4550039045521155,-12.446414417779982,2.4256178590300643,0.004452190336034251,0.09765549591309909,0.06014078877519657,1.4446484300130673,-3.7386338642252332,0.6870412835186333,-2.3202054242237415,43.92084704832653,5.509610251600095,1006.1917664067539
57,3.057439215586332,-12.750801887324169,2.557102602926786,0.011798450688464041,0.03130342512526152,-0.115690746684565,0.8062032236135555,-4.082853449658472,0.8823500222790421,-3.4739099460918634,43.79398022133143,5.958426066653069,1006.1930087452852
58,3.007660225980536,-12.925157085083173,2.5959704343139167,-0.0022640689188879234,0.110296212082663,0.0761025451515798,0.6706468168412393,-4.2316881632184735,0.8947854543112175,-3.8684747465591505,43.80598016082833,6.180908583599934,1006.1942039851793
59,3.7099214919974153,-12.674162223934035,2.46547355880842,-0.03247223302839801,0.07433486995291233,-0.03581732375336506,1.6954202784431205,-3.9527883364008587,0.7176681362344172,-2.3719923158925633,43.79404599795018,5.920636451037647,1006.1977970668012
60,3.192784774077529,-12.583427597484343,2.4741441470877032,0.01580101595031074,0.04890120890286702,-0.10867455333766222,0.8606527442010921,-3.935353107847881,0.7469453798439807,-3.8762426780771575,43.536309698152216,6.370350452136122,1006.2026455422889
61,3.004504284602119,-12.97496666548526,2.5088672074878007,0.00632660018654841,0.14736312390056383,0.14977888205070677,0.7749428214864834,-4.305132604089005,0.7683778301231977,-3.796771484638648,43.567300236840666,6.521097638018119,1006.2071116182808
62,3.5051941404922626,-12.78678666866717,2.507991094706853,-0.013782849793063535,0.0719438730465405,-0.11117357170259012,1.5661490622484857,-4.0288124152750635,0.8290152500548725,-2.1849809470232096,43.75444077624269,6.544129688283256,1006.2125353775141
63,3.045587525485022,-12.474803128467219,2.3540316642347046,0.040566705292076594,0.07617740832242388,-0.10238976618594373,0.8664821730346429,-3.8197989877977587,0.7076447154969743,-3.3663830762716227,43.95662010738865,6.079958299491575,1006.2172359936129
64,3.0478473142543856,-12.819117503149318,2.5005118696630326,0.02236381511848097,0.16155113387480285,0.1376773776623121,1.007330137812862,-4.139337290806112,0.7184642025169338,-2.6933000774441993,43.90235004055041,5.95027092167768,1006.2206667090729
65,3.1404042382383657,-13.061562657289777,2.4913667261470374,0.009764372775956274,0.05367144669584609,-0.18534633758846478,1.2151919952834445,-4.35829484411956,0.6811756139783205,-2.2428184583967163,43.75781794204927,6.027205194773459,1006.2231705954403
66,2.439948607501184,-12.488130336377862,2.3994363704971806,0.016673184864921475,0.10944493258826814,-0.07058897003960801,0.30262163843367074,-3.814818970420821,0.5563172322119795,-3.232135244404121,43.78709249124643,6.0022702428657855,1006.2265025412956
67,3.178175590904177,-12.48307985757019,2.329209140471031,0.018103514228869706,0.06626636859775184,0.11700921247540144,1.3565941529690173,-3.7728907812824906,0.49014035402712197,-1.8812275939989134,43.88956522259292,5.911554203232706,1006.2299649872289
68,3.061518844571858,-12.997627574451204,2.427189336565955,0.025278167454248136,0.028010018110278416,-0.17154788017363706,1.0565197036170435,-4.344252461853256,0.6179382314037835,-2.8764554089476633,43.850453354719825,5.91745666928519,1006.2332338808427
69,2.7680122055605976,-12.91555343662948,2.464438360233254,0.02904786550356537,0.12356733877460827,0.031659643220423805,0.5116388831280874,-4.242048395671046,0.6333489799847629,-3.777870250592782,43.76248999993146,5.851099795909156,1006.2360732548206
70,3.3913470378225776,-12.525426931177172,2.2995326217384684,0.0008690958665465674,0.13813475453222632,0.02615970853515004,1.5015737337490918,-3.8550096296125043,0.3617967943455494,-2.6011122663773936,43.56500647430446,5.566121531134027,1006.2381455542804
71,2.913681791449866,-12.781381602106041,2.32441103049295,0.0023881131388551317,0.1123578236084484,-0.12891529849680017,0.6968878765871519,-4.251210527128726,0.3026053585694544,-5.091083996871187,43.215721467153806,5.6650116623073234,1006.2381740410966
72,2.981121713527602,-13.248264911837241,2.6455673997534173,-0.02752649028864395,0.19309981266716233,0.09649522138071887,0.6941582882454992,-4.730183214894958,0.5326619969299746,-7.042107565320471,42.83738144398558,5.963505155491173,1006.2369787238347
73,3.6211950154134556,-13.084309596374565,2.5523469387326325,-0.05614004545392744,0.12533016188470034,-0.16155795384843263,1.5091997646621285,-4.5015850616681305,0.5459754532917752,-7.646739899093278,42.6653282197089,6.789252465945262,1006.2348902207684
74,3.1648217322295626,-12.49689102604995,2.501784154700389,0.0006233898356665865,0.10569301343091869,-0.09988417400809102,0.7781903440909526,-3.9643530132859786,0.6571383933020016,-9.490819429585946,42.24540242625824,7.7539942826772466,1006.229717750294
75,3.1115466755689587,-12.858486793311634,2.5343368398363055,-0.0007342698616747199,0.11728118098391804,0.15588428562972512,0.8302334934415971,-4.26432153851204,0.8367919720112513,-9.166081771422649,42.25948503010762,8.58385117221337,1006.2244792186492
76,3.681413733298658,-13.045893696274245,2.511983855595426,-0.002479608332170375,-0.040497321789494445,-0.17731163804192923,1.566748149034743,-4.377727870533218,1.0688435931113194,-7.560826517978161,42.35373654946706,9.231310731805387,1006.2182031606218
77,3.0256294089270312,-12.614266643143425,2.371703687831151,0.05497267637083947,-0.019901532144950888,-0.07650721870631119,0.7496092302343955,-3.9893399522810875,0.9456257141976787,-7.1003369343365295,42.57431129492508,8.802715172837564,1006.2121386505847
78,3.267910853144954,-12.514562338207593,2.3341356317269426,0.06074412228286123,0.00022484097764433747,0.17630069206764312,1.277618400961846,-3.8398863374750976,0.8885057386773985,-4.352870527120025,42.86151652125357,7.732464225073026,1006.2066199938853
79,3.227334154210333,-12.987986068481796,2.4536984451598087,0.044148385317257344,-0.041056489111078315,-0.1503953743366084,1.2700510065382833,-4.297131308153534,0.8745675591888183,-2.9859222075039256,43.197527280672546,6.909451333869832,1006.2010877366305
80,2.467328926420638,-12.59433722220157,2.1510939291575877,0.05644411877314025,0.020198044739759613,-0.04989964629652628,0.34565649362655204,-3.932939034084004,0.5594044887435357,-2.8249058222743586,43.54516448243016,6.148355443318391,1006.1963492678252
81,3.158301935322695,-12.523801775040978,2.303298389195335,0.06177227236735815,-0.004120935666430313,0.152271691432105,1.2545929946733416,-3.815467841916415,0.6473817887295075,-0.46695988738215677,43.45610762274291,5.281423671621861,1006.1928909258024
82,2.9596222131107885,-12.945724215791639,2.4712011384083565,0.05669083540193433,-0.024532120157309233,-0.12979884330477082,0.9383938873971933,-4.269208354399543,0.8172554509033677,-0.3168001162423715,43.61541899489991,4.416590213439903,1006.1903050105873
83,2.67249057322375,-12.940687903987664,2.460032055478014,0.043405215687415684,0.0629191258004918,0.05716149572094534,0.4305870723506309,-4.287002871872858,0.6155298075752753,-0.646615458537092,43.82026378317622,3.488370239036247,1006.1893864766067
84,3.302369102464466,-12.64780136261534,2.352630103028946,0.019680984248974357,0.05827635862752021,0.02152229534807927,1.4337452252650005,-3.9534917821130175,0.40033252341777015,1.367804574252403,43.56474748853027,3.042124694652343,1006.1911688385344
85,2.8344950193476284,-12.614089620789267,2.3939107346288933,0.0318201014619004,0.012561712728237452,-0.09295017029856323,0.6014098941406466,-3.978279597225735,0.5196618873830028,0.05349489731756907,43.788303809221354,2.8954139762515245,1006.194674969473
86,2.8438571623313016,-12.948827652893506,2.4691500372841415,0.04502518548337137,0.07770012718308486,0.09816070732866106,0.5314852385820669,-4.259415701881348,0.598287707163278,-0.02577777974291931,44.02458250456009,2.628518076760195,1006.1984501406248
87,3.363878827923164,-12.590879602708203,2.4177455956737393,0.01090286020742276,0.052483466339912965,-0.05332216350309485,1.3906775373834095,-3.922432994736104,0.45938979461030316,1.6409402951076733,43.79846844554483,2.2911814454491983,1006.2045442864616
88,2.86817691716592,-12.363581820168609,2.386632290802423,0.05450559796655475,0.0266532061347788,-0.08724381880748996,0.7232903364867105,-3.6987101522818295,0.4129749375758681,1.1283883530396115,43.92711559185297,1.9773434639193805,1006.2119394652159
89,2.6581721144499584,-12.65985576986682,2.4748357925453015,0.04147985995067232,0.09227448706845416,0.1452457866096705,0.5855219872337885,-3.948022779055788,0.458669867760853,1.5905347637667637,44.07527243308874,1.6819250687920897,1006.2173367904919
90,3.140337668139744,-12.723832129882439,2.4390439483140764,0.0005775734320893275,0.0770613791573592,-0.1431987673494863,1.2746243486937456,-3.972756290942321,0.37236633673929875,2.575582174188075,44.10374842904145,1.1858275522733752,1006.2212759948171
91,2.812892253381273,-12.242785050881128,2.2197257923141476,0.004545918026183088,0.09541029915949954,-0.10992881768899246,0.7508760018719947,-3.5403569449788015,0.12383800981852736,1.1765400387601679,44.35222574657935,1.0988667572265542,1006.2227907620972
92,2.9670473611800845,-12.189842933845014,2.296135722587405,0.015340744628741736,0.10196552133141082,0.16589054534301387,0.9445754676022434,-3.5924402774430284,0.28856310188682466,1.7738924866224708,44.0974186009046,1.7203013844072124,1006.2236283106249
93,2.988557782039741,-12.626323686359102,2.2539378651471913,-0.004692700744277172,0.021009575229956792,-0.14598411302185196,1.1697765585858575,-3.818804591910221,0.3015431930274905,2.2145641731490135,43.861027935817496,2.218026397398661,1006.2214983151333
94,2.3796638814545195,-12.081883419797823,2.116976311184944,-0.004675229372622981,0.058874740652453066,-0.04304199831910431,0.2538110782071119,-3.3271974352557123,0.1464031863898539,1.0508538585257585,44.08868682770034,2.117890278513591,1006.218315519666
95,3.0864474165201665,-11.909038997297822,2.2593630613747853,0.01563796754251524,0.06712910771609214,0.13798249076105268,1.1583620188099801,-3.115394971809394,0.2598579034890698,2.530505808128454,43.85744900619455,2.5573390903441147,1006.2159925761654
96,2.858307081737131,-12.3777384781872,2.391744352462543,0.0074792059796571445,0.015878633895629553,-0.11791206759732831,0.8975537665322236,-3.6039449952188884,0.3992678294729334,2.4244680704482984,43.99988996514522,2.615534823446415,1006.2153688999737
97,2.567491368889601,-12.371152765369917,2.2732797360500316,0.01079047348116624,0.050546036746096555,0.029168618130382074,0.43429908059955963,-3.6138039657066687,0.29045130182686824,1.515134915343638,43.58848694266311,0.5924836582623616,1006.214975579552
98,3.1957009803249896,-12.052466598474258,2.116318747816366,-0.0003334363978953637,0.06399915513472224,0.05969954493200443,1.2805250495297662,-3.073520424214986,0.03775725725822182,2.93685443112175,42.72444870413255,-1.3580637395952218,1006.2172855287502
99,2.681755911357182,-12.067848887500421,2.1742663210212916,0.007853174305642795,0.02109706364190398,-0.09296711908668925,0.6400205063713869,-3.3533939220100883,0.07987618773102477,1.7899766846329639,43.25156306220363,-0.23329049112133338,1006.2202287378334
100,2.634859583634778,-12.254300625648991,2.284878766153156,0.01117438250036579,0.05803692378525101,0.06876970873082977,0.4984901898182091,-3.511353035359634,0.35099776903005214,1.1573067130089179,43.653739420630544,1.0456670298009336,1006.2223768206999
101,3.195314889055563,-12.024952810487813,2.1810806387285138,-0.03441890204742622,0.03713397333710848,-0.025493647840644937,1.309906610901885,-3.2242697311069617,0.1850563833042196,2.6248435029290547,43.645121980585635,0.9135329799491544,1006.2235323272571
102,2.8795832550013363,-11.86153344892849,2.141088770527786,0.023489563196743717,-0.01497126254038355,-0.07404825942168158,0.6972360465909736,-3.1211777764245725,0.2721461742797029,1.6202968159102058,44.16574273820313,0.15464301972251182,1006.2217581230032
103,2.768454234999052,-12.223644631590558,2.270534770409092,0.018633645327242515,0.008481133092756995,0.1361504880875153,0.630376212108014,-3.4172278951748774,0.47979799342810986,2.3781538461595213,44.40608602281221,-0.70585293075383,1006.2179896807737
104,3.164601959959408,-12.174416792839132,2.3071851114923803,-0.0010613694539245884,-0.0006501352771219535,-0.05105631469690358,1.287505868464203,-3.1777127102405167,0.422980880372251,4.4448878973190755,43.787670554542494,-1.8790579330298458,1006.2113025903022
105,2.858130615575136,-11.737646099795711,2.2249374766605614,0.030069618471541715,0.003982230321883026,-0.07314667379574022,0.7733966162445208,-2.9824518416358994,0.416788160297895,3.724468571797615,43.80216841785976,-2.8151105375155563,1006.205793405356
106,2.675317005754158,-12.182161053243219,2.2717685865903197,0.02394988525831204,0.07603958543654148,0.14591676865836745,0.624856518586729,-3.402645977377015,0.31073231886465014,4.113423841273313,43.78940508920431,-3.7843510861271072,1006.2011439074403
107,3.156055982648245,-12.196930581052126,2.2195056616084194,-0.008299999680770703,0.04153536162691911,-0.1245512401755714,1.3039734159298346,-3.3648383485098967,0.29336636327535404,5.474943583155236,43.38214088207895,-4.1220538832441145,1006.1968643878936
108,2.916214035479545,-11.924760027000563,2.099134158697609,0.0183188194329331,0.02323923152646207,-0.09819032127968437,0.8201952507656632,-3.149174158912366,0.20122582828910796,4.553017433349435,43.56948233940982,-5.310225919854699,1006.1937410071363
109,2.9945152872010645,-11.94509139119378,2.2440975027736667,0.02411226685192798,0.09285647249582256,0.14335121922368588,1.0035052556566872,-3.211754633891389,0.1929128983789169,5.190516051502801,43.611028813967835,-6.823156167602983,1006.1934195193162
110,3.0378683024314515,-12.432027836380128,2.4130886081069596,0.001808619485630724,0.004284267494194943,-0.15213810304697217,1.1058186431007933,-3.711629099884338,0.39334008821251654,5.363871206417808,43.65916727951485,-7.219073111305831,1006.1959672222539
111,2.480805731763961,-11.874629125961421,2.3810129180838464,0.006787754367624916,0.07291803721748186,-0.03159429937170137,0.15963917223369728,-3.159679379023566,0.27582379781068006,4.192300868873504,43.532426739367565,-7.680915183157101,1006.2004031272096
112,3.093713340754933,-11.690119108804597,2.2093257524923042,0.030994132751853087,0.0631244743482269,0.10728230866911141,1.0029273983712412,-2.950641163834601,0.028579712089585485,5.3687945385441385,43.20735568428966,-8.042239893203217,1006.2071651028263
113,2.7022433642966117,-11.9290948799804,2.2805714895506206,0.0071355613075145125,0.10551233753885765,-0.1067302569880638,0.4985077718113332,-3.22051154915284,-0.011063170092672776,4.638199602464041,43.630038763630466,-8.59088630951164,1006.2140791829776
114,2.5360507054410224,-11.950408955810353,2.311393284485928,0.007797410391742503,0.12076545608203662,0.05768645295468462,0.29228947946560596,-3.2145692398868086,0.04359098069565047,4.14730101273724,44.078488716037356,-8.025605190993705,1006.2192696448437
115,3.0361533597400934,-11.771101482451698,2.156525488689727,-0.006795715929388609,0.08952545473262374,0.003857593422002266,1.150020513769511,-3.0008945470641266,-0.12584639444831613,5.663745432226067,43.65888773001475,-7.19268954138607,1006.2230578711943
116,2.7233666550761773,-11.650616623639616,2.177502449829366,-0.034551842763828784,0.11325554057609175,-0.08247454512540464,0.5262568912870504,-2.9981425404907434,-0.23754917903253675,4.381830666293608,44.00773555431269,-6.249931044839442,1006.2254514900292
117,2.517431300995347,-12.119498827026483,2.2715398719572244,-0.009195408273469433,0.16531568523661994,0.08429195888292523,0.46790933847657806,-3.3783146726827695,-0.12624842098571526,3.6166726846791466,44.157530581143035,-5.021040328900428,1006.2263534092361
118,2.9849385345540083,-11.986971176270593,2.3074075254939466,-0.062433436409078724,0.2019412513816592,-0.10666218526177154,1.121822718149582,-3.192405965555467,-0.06320200193717583,3.851477501280264,44.09491055875546,-3.4502160992425726,1006.22565143284
119,2.8497121535379897,-11.538912962629238,2.1972740075763513,0.0011775787281110422,0.16313295264928707,-0.10427636078698628,0.7101153544709091,-2.7914117833845697,-0.05028767249678477,1.6501058406534552,44.3477453023661,-1.819142354396173,1006.2242940510971
120,2.8010115550121704,-11.972681675749076,2.231318467312055,-0.003891913083043033,0.16119180413343326,0.14234179312462208,0.7272888083312847,-3.225202238445557,0.0535868406331787,0.9436014215623318,44.41594455061252,-0.6226980344094803,1006.223303374464
121,3.0523346823080653,-12.101438910669179,2.0892942950949065,-0.027781064708092752,0.1606526088964436,-0.1620972517614847,1.0650418630454515,-3.3068224453011448,-0.10227177208799182,0.8268600293632518,44.341251848465355,0.6315026672065556,1006.2225803352773
122,2.5781942189929015,-11.563940805771926,1.9799781367365479,0.01201713733602295,0.1281702658369871,-0.09308325519660872,0.5932379721878895,-2.8045462724304677,-0.1951190748457824,-0.9142943734637645,44.32956430232411,1.521598765654782,1006.2208777202528
123,3.0707119312811395,-11.655974581443317,2.0314360628073,0.0392917570380384,0.14320418647001704,0.16166900579740706,0.8223375064991432,-2.8883460831739103,-0.11796229229398265,-0.5717826390710958,44.42351722547443,1.9347837758905557,1006.2184601678882
124,3.157099924799035,-12.001830048037139,2.1031443216417465,-0.00983243065071853,0.09966312614242616,-0.1419817938274729,1.020257595803197,-3.208375626015372,-0.0199429400151675,-0.9079305137623288,44.47379760623165,2.542858392250082,1006.2145933766717
125,2.58219970134852,-11.61015215118642,2.0552480151420394,0.0030895497736177936,0.11484062346105965,-0.006428624001576372,0.296169081408734,-2.8140718345632676,-0.008473172675455852,-2.473374711386935,44.45063670754021,3.4631597431973393,1006.209730733254
126,3.164211435313351,-11.40446188457135,1.894610584330107,0.021061342313457798,0.09992111855571176,0.10566272955151598,1.143979874251377,-2.5836833216638087,-0.15293438705128565,-1.5679469255842373,44.397380295782746,3.8811527053198245,1006.2016885250459
127,2.738852297541125,-11.716508371642918,2.05516110495035,0.01576297082497424,0.07222856844845131,-0.08521208625098586,0.5131117199773259,-2.9293538874285905,0.08426646040815147,-2.7924590422706688,44.298231634322484,4.31004439146305,1006.1906044141408
128,2.8013462336797117,-11.923070628258571,2.133054323491724,0.058612770436456976,0.0693934591674373,0.06590401815580402,0.38767421285605835,-3.101692704472756,0.13010774255842072,-3.7397028859149914,44.36812743910186,4.3171184032327545,1006.1791550819989
129,3.312883710736568,-11.689938537808613,1.9116268776997671,0.0047584176169465225,0.060051876288793646,0.0026307436605971374,1.181672642429651,-2.8624808576933747,-0.044756664176126365,-2.4796061516144956,44.3536311119889,4.432227507832895,1006.1674391954062
130,3.001963466392902,-11.428658927780623,1.942680211156965,0.060589569803763524,0.06575768290238904,-0.0804998257303338,0.6231991985583123,-2.653338839259864,0.08413887370591075,-3.51239741505307,44.40617253535925,4.693398099027062,1006.1572393948368
131,2.852898114260425,-11.750247114206347,2.092123235050579,0.05615969218672931,0.07738842898030163,0.1610846799941914,0.5666676945976346,-2.9505673406142194,0.18379097183868506,-3.0234186051368095,44.503233363009315,4.413363072975275,1006.149795133751
132,3.2360425751815267,-11.919886124757763,2.1063590067403144,0.010703308750571822,0.053764347652220386,-0.11126207828578821,1.1532779686936219,-3.084487792351195,0.2084821635879155,-1.7877731153188907,44.32559360970502,4.1885224065427815,1006.1441353249786
133,2.9021988682775777,-11.494598643082957,2.076360512169374,0.00488916284121323,0.055107570958088783,-0.07027672422440723,0.5696961469240893,-2.7062340704368073,0.20635955030305722,-2.6000722537922862,44.35385080165274,4.250111046178059,1006.1405610705006
134,3.1571613382592205,-11.668923250518533,2.2175080016216917,0.009901027644675337,0.07377860211152443,0.18586903838171992,0.7752344686709829,-2.9746426389327816,0.42806077483404337,-1.92184776319241,44.475009069676496,4.29378664155859,1006.1390449347933
135,3.3332399491346276,-12.070906739641101,2.306457778440163,-0.019662673572588708,-0.0012602566413964789,-0.10944934729453704,1.236816729014433,-3.2362619303045626,0.5389822691950059,-0.9873636950898623,44.61977792334883,4.469359647721396,1006.1379383925655
136,2.654895546723968,-11.733128458088267,2.218216695079004,-0.01510557953872222,0.012364190425477109,-0.038796815739933585,0.32208026677384627,-2.9674723724074297,0.42977265574316287,-1.3492870328218505,44.70240498825872,3.964043147066638,1006.1355849557499
137,3.1601062339401285,-11.641213988480434,2.2592034465377653,0.011517081419882579,-0.010508326307608465,0.16250983644859862,1.116631954759896,-2.8158864761449616,0.44280787071493505,0.7411780276929569,44.54921482722062,3.32527115215841,1006.132342012537
138,2.9201479093373974,-12.114564519815335,2.374678923259592,0.013237156890809747,-0.05302309448541833,-0.1039025333554664,0.8682303680960639,-3.2811425550228788,0.5399232811870197,1.4934304078061442,44.590700422667716,2.2738014173465437,1006.1299751705778
139,2.5832317757354426,-11.82028452420984,2.2927288496817964,0.011797063379247063,-0.013368319945603745,0.01809263585802673,0.37994774625131383,-2.958696028759863,0.4845643357056247,1.5583966641123452,44.70069450248434,1.0972687662547091,1006.1282477456765
140,3.071303138274952,-11.669112322879371,2.2553918551763736,0.020835918321758573,0.002876215224807424,0.11512143558420737,1.1573356897067595,-2.8483570367085327,0.3600646271688582,3.670734489680085,44.228988667368164,-0.4267962045314522,1006.1270899248595
141,2.6990518412910616,-12.158288890392857,2.3888198470260864,0.017325535639901943,-0.017087908889806325,-0.09642205701176162,0.6348634275719093,-3.3496509342738436,0.5688734710045422,3.4584343514690885,44.21617945021943,-1.809646787988239,1006.1296045591793
142,2.6542532646483536,-12.16102604523565,2.27500079038246,0.017640914029689137,0.05921817870457152,0.04736302440033163,0.4445783875904232,-3.3670969650904086,0.4393955410664822,3.053661330242946,44.301547937373215,-2.884505126486533,1006.1365722771301
143,3.3109388240890123,-11.873190963312695,2.1299298750803364,-0.023012173305090065,0.06804252930989249,0.027842143380242698,1.4123480868260478,-3.0395704995492023,0.1538441453349393,4.724585605286535,43.8748204387892,-3.4698909311491475,1006.1446666226817
144,2.7917362912556993,-11.997851317265992,2.0921894352373926,-0.001244341795772961,0.06915868704697785,-0.09542957834314453,0.6388543770846901,-3.292588582812321,0.09802730593131356,3.3402843576372345,43.96353378344723,-3.6131872831117033,1006.1513782153881
145,2.725140860837749,-12.390662604802134,2.305326807331579,0.003859595086919217,0.10265353206825101,0.11717509321455949,0.5502130408283454,-3.662669759932835,0.24051053598354194,3.220313286399552,44.06098471361772,-3.1669244672553223,1006.1572864735533
146,3.407956431159691,-12.358264462154803,2.3952507492206982,-0.045220517752233555,0.06752429685002859,-0.07478702455201547,1.5003214484197995,-3.448051209348358,0.2925652431816623,4.524595164633866,43.758596701843864,-2.882674972265724,1006.1615985790738
147,2.9446117298797483,-12.15440141607443,2.358117790796341,-0.007927521840377344,0.040631701862281315,-0.10578386908774116,0.7431843641480267,-3.546267779064527,0.35857107014118966,3.1056453467224503,43.861431738660194,-2.612180129441656,1006.1638801619989
148,2.9279738860882456,-12.697676251721632,2.4658272869211046,-0.004575826058467975,0.09845092345374659,0.14456244346661884,0.7166283266829271,-4.102551781993405,0.5256139985692617,2.8274130403253928,43.88560254743506,-2.332066948934286,1006.1655453611239
149,3.5534168688043533,-12.769142750858812,2.351922882377082,-0.03230634024093054,0.09722102442103081,-0.1581185364417591,1.5307382326208678,-4.141204541234471,0.46306327033076056,3.454139973258632,43.812072212807195,-1.9100200916132977,1006.1682036006889
150,3.097587555373989,-12.32386269040575,2.0520744318504813,0.013379305101736703,0.09935755252876158,-0.104919764322802,0.748372845270002,-3.8263750280135556,0.19384294076505681,1.4962150440523174,43.89138383508374,-1.4633300659626878,1006.1716068663662
151,3.4165282928309075,-12.720202359513609,2.281099185733982,0.011608355902804996,0.1542483848293944,0.14775044655376793,1.1750051646842747,-4.211082497826178,0.40939824263410246,1.5992410467821931,43.87099766403931,-0.8612901499709358,1006.1786047588243
152,3.5249865968704754,-13.125730692276242,2.3503850472668293,-0.02252035047165,0.08524239573727019,-0.20072547537618793,1.3808673966359528,-4.551060567810892,0.5590455125914501,1.7892839336641402,43.81219380405022,0.05191236075575001,1006.1858144828057
153,2.7566629736781847,-12.355798638077697,2.3938597440316802,0.017338512058154537,0.08131593087191488,-0.06047719607344665,0.3948479817988507,-3.7876573325345984,0.6895729256205989,0.9505720251954285,43.9281484598912,0.6706890193413141,1006.193900127794
154,3.2880734846550803,-12.644815982348899,2.4989028645905083,0.010546913157398561,0.10358828437370438,0.15882393824411983,1.1646943845871158,-4.040274212512735,0.7876145619531116,2.3669931679551923,43.84306554646425,0.32084630686662413,1006.1998013855617
155,3.1875957307736864,-13.119772226462597,2.479030337850361,-0.028773568365648077,0.040936026267896,-0.19416225695694955,1.0984821112018175,-4.526520966561374,0.6910020516745806,2.477248840710545,43.830969511377376,0.08960385328666334,1006.2041083818857
156,2.5647082420138845,-12.655669645575394,2.298288468061355,-0.002649157090826429,0.10838252430302195,-0.03410767406090684,0.272643608555307,-4.079421159638436,0.5494079679424596,1.3547435094258806,44.00793028934475,0.15810026685236542,1006.2066334288293
157,3.309715264968936,-12.545456208101903,2.2975142478911557,-0.0039077535324793045,0.09027234155313263,0.0970464177050995,1.3052989166116211,-3.9351879449178435,0.49738002605525405,2.8452674332100694,43.76575698834512,0.17937020803393772,1006.2064358287876
158,2.8489352017300185,-12.956232633416457,2.482127385965361,0.0038899619015387143,0.03032836510111709,-0.1507309661558873,0.7629413299086566,-4.490643542845742,0.7516789016913594,1.9507114866054005,43.96977858756802,0.41605814695412213,1006.2058793532452
159,2.7260578252990033,-12.993164820779937,2.535129818297026,-0.008484163297009009,0.1051329886028673,0.023773902830581978,0.32571009671193374,-4.336483570935553,0.6256615659550211,1.093618776337568,44.207187841728185,0.37699619235132836,1006.2058854714068
160,3.4493610256461613,-12.590725136185991,2.355527760904522,-0.014691605670489617,0.09101063060584565,0.032092903746858914,1.3816254420238783,-3.9126661213946674,0.4891274139694067,2.5952480514555782,43.948758821858085,0.29987288253792393,1006.2059518024814
161,2.8061321083432165,-12.820166700806961,2.347981212708754,0.01093427867658771,0.05104093066177183,-0.11688787874863704,0.504235215344696,-4.251198511175517,0.5369909332067468,1.103919481120573,43.95939441652847,0.5623289282785471,1006.2064535359277
162,2.8470684480978843,-13.104037540447337,2.450371225911477,0.006177146335852131,0.1340753809785611,0.08719092792841732,0.4652802491639048,-4.528739146948698,0.47810750278512576,0.6137901284218559,44.03227070983922,0.2802753534037393,1006.207953568588
163,3.424063939931676,-12.916568986156003,2.393088958071811,-0.04331122624878902,0.11015089093891535,-0.09650611835922038,1.4113073400053229,-4.2760273526046735,0.4622580148955453,1.8962548633549776,43.75748650943468,0.6644013033282687,1006.2090483581071
164,3.1357394639318614,-12.643693736001277,2.3541506174520426,0.0037121292287473004,0.09666136560274496,-0.1175494585297494,0.6575882145035578,-4.120944374573606,0.6208253092636609,-0.05432719000108355,43.78317173068577,1.2656388306602389,1006.2080335546304
165,2.9844982494635643,-13.120724223413607,2.5054154246098608,0.010310165081059777,0.15816784700206377,0.14831431715774485,0.678603110829387,-4.519494419182978,0.6491623391046492,0.18432924276125967,43.827076268149156,1.4489150769581154,1006.2072929066169
166,3.434217237534926,-13.199170362193817,2.4743675938686835,-0.023145040048606413,0.09611764254635416,-0.1960589565525323,1.307390202531014,-4.546046303167327,0.6128297681036565,0.5583249939573498,43.85010121381193,1.72851827064627,1006.2061134298239
167,2.928900556325875,-12.71887903942917,2.3417448802169902,-0.020225283687755675,0.11801135460518297,-0.10767957442724359,0.5835104492110379,-4.141533355911818,0.5415315872482794,-1.295774226655278,43.8408047286772,2.3080526745691214,1006.2008004216416
168,3.3925954627902066,-12.621545035418425,2.4793948420757674,-0.004226067920442854,0.12293849686331193,0.14441863910262437,1.1931954207664357,-4.03270337669523,0.6195175489446947,-0.9988640834240781,43.72852303723247,2.8285559234188216,1006.1950678630728
169,3.279069462534508,-13.066749341305647,2.4971747328968497,-0.0183605615241595,0.045870416932335525,-0.17346937596460826,1.0951653508760337,-4.468173503553381,0.7297578046948824,-1.5873506347881516,43.64281771130308,3.6632443791977463,1006.1897504153463
170,2.691791519560982,-12.665384388645922,2.331314774842291,-0.005962521511795204,0.11539939580516086,-0.02139113625032535,0.20251878083891572,-3.963533287224351,0.5503649286485766,-3.1039019767601905,43.694664395269186,4.112631531973693,1006.1828394370821
171,3.3275770416569044,-12.36813992019627,2.1883670766269874,-0.005587119788136663,0.11010389734518687,0.0958450360538171,1.2510320868430655,-3.755283210565998,0.45200531146002904,-1.9003200348574898,43.70522967373178,4.428356817446293,1006.1776924379311
172,2.8859253457016307,-12.677625784766544,2.2044145356899225,-0.008954437044880565,0.03874241849911943,-0.11162918259610409,0.6196960715854767,-4.071237023519312,0.520310148560006,-3.129281510436339,43.67018990717594,5.071820006074244,1006.1738328679785
173,2.941715008911546,-12.762279056486895,2.372382657415319,-0.018071300766535875,0.11778939066336971,0.0796582546785231,0.5299316028043082,-4.133328232101294,0.6040341541977826,-4.170092585719771,43.79690129258063,5.12993567961057,1006.1710159848237
174,3.6091979998303145,-12.468538665527324,2.2359130885458147,-0.06089970206039761,0.07350174975931373,-0.07344994382742252,1.4600281138420699,-3.779462317799819,0.4445580422758025,-3.358654729570186,43.7371225809762,5.38162168895748,1006.1702998048061
175,3.1762602823072537,-12.30076282896709,2.267906079215724,-0.005889585772788954,0.09457712491056422,-0.10139847933319743,0.7209941102882741,-3.70205573732585,0.517968988189585,-5.334522257984916,43.4356670412369,6.038463139519338,1006.169900836814
176,3.0513236627879197,-12.647079009784672,2.3348164105565257,-0.027651597566571415,0.13438164496389815,0.14512946895329903,0.5916621162323633,-4.057661629517576,0.5650003411809186,-5.78019958085998,43.4704419872506,6.371907659889833,1006.1696096525034
177,3.5908351716016833,-12.708480457599066,2.3519546424733537,-0.06542430796871718,0.0872185805080096,-0.12452966849795272,1.351567043927331,-4.0342991863343824,0.608976386001133,-5.131074579787951,43.395562571490125,6.56296485527074,1006.1685315529402
178,3.124534734762813,-12.239984022737016,2.2015444194411877,-0.01916522552357529,0.0791010880760768,-0.0806894681718199,0.6241960518065864,-3.6452643787365195,0.4611893933814255,-6.558183096374416,43.220304382086816,6.766891140833391,1006.1653124922955
179,3.3094578310075273,-12.534118683025934,2.4233977119157655,-0.03365751623505109,0.1223668884403452,0.1513231641466742,0.9483313700120433,-3.92100244120416,0.732660756764469,-5.990686799323797,43.32831547072737,6.678705114905888,1006.1613553812635
180,3.5234242854747877,-12.856599885800776,2.4236847791036595,-0.04749478886137408,0.05173672432579447,-0.1926207850447423,1.2259343937035752,-4.2486168155857404,0.7384927778348102,-5.968617818736184,43.29015123665628,6.653496367800424,1006.157354264765
181,2.7845004539886227,-12.382769651980745,2.1983252849253136,-0.031740835067186404,0.15402883961076103,-0.08080600582794373,0.21071853342762203,-3.869355893707452,0.3783410106416954,-7.696429231750534,43.067890199702084,6.401136605861769,1006.154434074743
182,3.522068722121889,-12.284802726646342,2.3726140517723224,-0.037613629584888585,0.14426495288396873,0.15450730570729487,1.1144872622283069,-3.7953224550870455,0.5865913031257384,-7.631613618501609,43.025076412417484,6.998899781231906,1006.1525707871574
183,3.4576570979554084,-12.808571619740501,2.5148427873028063,-0.0409473314913557,-0.022075381046582493,-0.1523589252857921,1.22876396737645,-4.062204524268507,0.9239601207738128,-6.765546921758649,42.81827657368266,8.351411874759636,1006.1533750997008
184,2.9472535243355904,-12.415086030846057,2.352669604115226,0.014882154285037821,-0.01674826166996094,-0.0644246532641024,0.6295222680893334,-3.664923151946584,0.991398745161062,-5.78750971568414,42.95801916325095,8.035602047187432,1006.1569713922585
185,3.1080963075216426,-12.34840335983319,2.475472548251255,0.043519441909571945,0.023963975290206073,0.17766660737664697,1.0572503249382854,-3.5501601551165076,0.942233386141187,-2.7224005355041685,42.8035874172158,6.901434297305871,1006.1628320551478
186,3.0691738149796013,-12.912904164095199,2.5923984936293722,0.03074167605898204,-0.027653874191261356,-0.15160917949846214,1.1205571377897672,-4.0847439067916165,0.9547175439728641,-0.8634101401333831,43.00818187849876,5.72802529268859,1006.1702424251408
187,2.356559571112902,-12.577273651527708,2.450485692370879,0.02155634582092241,0.040220114983552956,-0.03076888388165651,0.2830479327456078,-3.789012541127271,0.8623448119671046,-0.6250170982412809,43.312837637211864,4.595522729131061,1006.1771038728336
188,3.0889108386865844,-12.535127982181544,2.457661112680867,0.027297056639818306,0.06001737655099536,0.15101318842322892,1.3160734157832636,-3.8319878590747987,0.834352357214974,1.3410293795017463,43.201000331039374,3.6093178588534904,1006.1835646929953
189,2.8580587316193973,-13.153681760494438,2.5602495480432723,0.04199803966691698,0.021398095122097956,-0.13620947467661415,0.9939587157077393,-4.409729488613836,0.808436813223985,1.1551103841748795,43.3441737339335,3.0587737665718904,1006.191454417946
190,2.500319113992074,-13.053843241024019,2.3795639949338203,0.01626865364002448,0.07796060918115802,0.032046927272567194,0.4138598391841326,-4.303417108260945,0.6684256218414397,0.45557278386228817,43.593464567390185,2.8147971922754547,1006.1987171846353
191,3.219380804013123,-12.61519562879833,2.3766309772781327,-0.0021376127619210615,0.05011994768573684,0.06655031850824379,1.408222186876951,-3.857232386627351,0.6478286204338617,2.2003681957845624,43.36442797327133,2.4503128292225127,1006.2040592036884
192,2.6435589970506523,-12.899405164703964,2.3271997621908005,0.011740823090652198,-0.023744924936951406,-0.08193174825729564,0.6235482783270823,-4.205942925429343,0.6520265164479874,1.4205297688234761,43.53466150147352,1.939161819642516,1006.209668672244
193,2.6369845565527874,-13.091986021726898,2.419416495889482,0.020930741216284993,0.0471358100755714,0.09413713490214552,0.5249917221816496,-4.3883340350157924,0.6844287211228621,1.3218034707517317,43.78006840115334,1.3510708376970406,1006.213762708024
194,3.282729824256163,-12.80861762146549,2.330212790082707,-0.009623706666933171,0.022664602292448894,-0.025608805933490242,1.4658745798899877,-4.020227196876905,0.4419243025167102,3.095607592550333,43.48877884537821,0.3167043439455903,1006.2167507146064
195,2.811116042052838,-12.609406507563444,2.25050043943867,0.007973819072259563,-0.0004727310710002097,-0.10833317162121038,0.6753449102993847,-3.993887536128293,0.47829053964741886,1.9117698977422075,43.64995178228644,-0.5100201464853723,1006.2183544389809
196,2.8588738786789762,-12.919995205665643,2.340238732386653,0.0006535207096710358,0.09014200489699455,0.1365161657935276,0.7276703736276563,-4.284283756595681,0.6041315365285161,1.9878776223348404,43.797194214058074,-0.9240821931321831,1006.2195249072535
197,3.465645399416783,-13.015031835170147,2.380210784470667,-0.01087159619790751,0.04274518200757297,-0.16118714412678575,1.5277584556431263,-4.320062195812106,0.6889531789172596,3.3644830979798463,43.594945255092156,-1.198008824529206,1006.2199874397443
198,3.0552246071082676,-12.520948392111155,2.1695950412154903,0.019632481198330186,0.06897725952837326,-0.10928363547396114,0.8187458314348374,-3.9164785993774376,0.36353509893891844,2.1327452466402406,43.701541402732836,-2.027705782670698,1006.2194799675788
199,3.0563933096420595,-12.558534643315577,2.3291555285310235,0.001943365766590384,0.15260001859839067,0.13677266095793364,1.0700851144502403,-3.9792010260131065,0.2867104736513848,2.9015465191528778,43.67865810735207,-2.1795704342330584,1006.2178112214168
200,3.052792291237948,-13.023533310256788,2.3311648157196863,-0.021209241847641305,0.07980873422672288,-0.19830404379680386,1.2164323973299078,-4.438535309150996,0.3445215497280053,3.022746222031635,43.78911129461729,-1.4536555020074438,1006.2156245172208
201,2.4293891457470025,-12.551405536011996,2.129305328349678,0.006132986282718186,0.1369346524857909,-0.08490905979552096,0.3526719625671353,-4.002107069485202,0.17746672861306675,1.7257946688759176,43.97651346044215,-1.1239098154613816,1006.2124208651301
202,3.2251314950053187,-12.521547469643973,2.34975438183526,-0.035453312395272746,0.1446665028027953,0.08945287255912007,1.2774236102968384,-3.975167893321442,0.25267721487757167,3.023006423192917,44.60304693792491,-0.7716729866104575,1006.2069496979632
203,2.991754138383008,-12.915464049542152,2.550276687531031,-0.058740637050572114,0.08394949693827394,-0.1652864913898219,0.818700426942119,-4.409971214623925,0.54012340929259,-0.9329882610164439,45.08706267474479,0.4067056570360781,1006.2009058447883
204,2.7187310435752803,-12.394280814505391,2.4336973516968214,-0.05436817275875996,0.11969058779869221,-0.0005058915483878712,0.3564908573922232,-3.8194530585342203,0.5601456088036196,-2.719466759686793,43.47271219494873,1.065390980987198,1006.194444020288
205,3.1465960398252735,-12.268101762557087,2.4700155835923314,-0.04081474445866789,0.1302307171654572,0.13913348663906383,1.3196052838485883,-3.595881981083495,0.5600030793102061,-0.720608733796773,42.10011633293181,1.2401313655485935,1006.1897278978164
206,2.8011959941465534,-12.93757246162725,2.7154268249594957,-0.013943553993387356,0.034445056372250454,-0.19194516352899105,0.9956036570999874,-4.398000401205186,0.9211743861190425,-1.4594936035608403,42.395284549392734,2.811628207844464,1006.1875018382361
207,2.582274561206907,-12.662210074033087,2.6409408350641406,-0.0035931894278258235,0.10121373049868984,-0.02814136228216893,0.3269538842191666,-3.9740393149405113,0.7535344951796407,-2.436512814831361,42.90013596824594,3.398174352478236,1006.1905351958845
208,3.1421700173382123,-12.370877192409845,2.5539208531037034,0.011581447312973628,0.08962893233970073,0.07313892674498636,1.1637338718388,-3.644312125738094,0.6242692599945663,-0.9189074319501138,43.23408117151669,3.413730453186261,1006.1963356669902
209,2.8187377594637013,-12.749516490818854,2.6965979111913394,0.006653165830841039,0.044968764194683784,-0.12700873647739686,0.7779904968698745,-4.0329100611472395,0.8474625349797013,-1.3100320020826621,43.551684418734645,3.6566981606144986,1006.2036399704552
210,2.705365980304576,-12.400775393959323,2.501636489791342,-0.009915236563202217,0.11273527522054752,-0.011474682558103591,0.3998648982657837,-3.6942164606675645,0.5438879277480491,-2.530189621494302,43.80378733100157,3.4088132208224637,1006.2095893585348
211,3.3132493456707874,-11.966100517481156,2.406287899484899,-0.027945258527588612,0.1247510005046272,0.04912968729261601,1.2695656750763435,-3.256623138281488,0.32681120760085797,-1.9243407747722712,43.95114722044943,3.3868803287205163,1006.2139314824678
212,2.895775383779086,-12.187445461324746,2.4636511537751526,-0.04255907933399319,0.0990043080601087,-0.1442545321748286,0.6728303987213213,-3.6152572912196956,0.4346299572374013,-3.8429448260671406,43.89767046133882,3.8879525815656164,1006.213122774584
213,2.8013302083436735,-12.235565633061276,2.4769958997436734,-0.017438339294261654,0.15021661380957052,0.015847157005017237,0.3923611354003198,-3.5526329370894243,0.3072170271833069,-5.568371117670636,43.777362312979754,4.344661269242754,1006.2095232741145
214,3.2535960500251426,-11.65030957605964,2.3351183009482264,-0.0313842976342554,0.1519031773788979,0.0499374588327062,1.2539573461891864,-2.8941083229936084,0.22420764992134823,-4.803364281369701,43.75102980544546,5.074248092579309,1006.2062570114592
215,2.740271784444152,-12.005439612159694,2.271954157005857,0.021971505286269837,0.07236521313660367,-0.10797182979136116,0.6645344520085654,-3.24047203963089,0.24631173223323014,-5.736990591655338,43.695704630701,5.8905571290486165,1006.2038731499499
216,2.61240227246301,-12.269273116536208,2.430019474757442,0.02371582448365538,0.11893953489867584,0.029565570681123893,0.47775906432432313,-3.472002866192379,0.44313253528705115,-6.2458899365421585,43.77475859481507,6.224785444033747,1006.203555675891
217,3.122741379275581,-11.911454209477478,2.295519928795403,0.009932104574789493,0.11299217201948422,0.01347345821858896,1.3068140505688417,-3.04133451457461,0.22080675895767188,-4.948095285567079,43.89124639789818,6.163550480419968,1006.2069513568781
218,2.5856282107154365,-12.010272258922225,2.2534941592810966,0.0037533130530216403,0.06417472556897073,-0.09631562249733182,0.5532873506230668,-3.2438800004699013,0.3163934290441657,-6.21980553057485,43.75727705513954,6.727566319830698,1006.2136138529625
219,2.529744360487938,-12.175486542275356,2.288176058160256,0.03164686184473605,0.07264689716983636,0.04101377655152284,0.43742475679584636,-3.337321377379723,0.4369074373295442,-6.816225793029529,43.789766913097715,7.020070660464255,1006.2222688872453
220,3.22159699830208,-11.908089348238105,2.2678379438971996,-0.010542666754311071,0.06659351720680971,0.0034406482351592715,1.3427895979759958,-3.0087394700979715,0.45708571309825025,-5.518116332741517,43.87833209503662,7.089179754028367,1006.2295544904284
221,2.7344584424678855,-11.956265176811025,2.218296536955854,0.02342118075213203,-0.002025956811280774,-0.09392488571593251,0.6349906126980966,-3.121780436555972,0.48784560277354017,-6.151808574418843,43.90600100245425,7.442805873971895,1006.2358406228302
222,2.6986214307994483,-12.13552915965162,2.3486916963712843,0.034738994923732405,0.02983153732656505,0.06652292544669071,0.5360896098375683,-3.2893082773544573,0.7120954605363761,-5.639550593908614,44.141954843976876,6.979379531553322,1006.24055224906
223,3.206643780854899,-11.899477163467422,2.1757162505019845,0.0035560934405180697,0.011527985197590126,-0.009389731050920683,1.3727814320194929,-3.005285922956952,0.5404260399775968,-3.292022450243192,44.19960376791203,6.463937189292987,1006.2442795270301
224,2.7476823615890216,-11.838886296142144,2.174738514802863,0.0290597808364424,-0.017358164649961556,-0.0924407851673478,0.6839940559559647,-3.067389533286344,0.5530091892827195,-3.3024331047509086,44.39666354477244,5.809051875158147,1006.246711330869
225,2.6907885400578997,-12.119837555487011,2.390651652357459,0.02957840267022194,0.009725948498388377,0.09796250506614007,0.548232471451684,-3.230561232247619,0.7137060530935441,-2.5635114697749786,44.637558486429334,5.279257951165274,1006.2473523221735
226,3.2424007701560766,-11.959727733580923,2.381529336346626,-0.0012845305820874467,-0.06636989566781545,-0.04155825795086024,1.3502653510630047,-3.031650957964032,0.7080920658412783,0.1080713707010732,44.46466328059357,4.054483439853665,1006.2478201456953
227,2.984446490325382,-11.745562587326882,2.3655259396474055,0.04531731686840041,-0.07797996678040477,-0.06653705276465684,0.8581775446790783,-2.9058407944875593,0.6659929979209173,0.3274376485758046,44.52481853609517,1.6703872433635647,1006.2480381223978
228,2.7719076623010146,-12.063482746671713,2.348965740656483,0.05006199714211408,-0.01795349611032635,0.13574556765650247,0.5888655561257806,-3.2516175472381716,0.5258423360844462,1.0701936818003877,44.5664501228584,-0.5991852914171654,1006.2473932264535
229,3.2378128112701234,-11.938256706027433,2.2874042790064752,-0.0064491850249031105,0.014135403890496778,-0.0696522794333489,1.2855467188670024,-3.102566755300121,0.3291989868628876,3.1632840684229553,44.19391385291824,-2.5704070045065155,1006.2461807041967
230,2.9670420922041747,-11.46471113389767,2.171108302860034,0.009920994285748434,0.04192757696011328,-0.07708831230646349,0.8133320487803295,-2.6905300286645564,0.2110876156106088,2.750691920356196,44.35407725811522,-3.3716562401308385,1006.2444917674732
231,2.7748898069751635,-11.974096563972234,2.394083745844765,0.02982925080617506,0.004538602413692257,0.15424146574314923,0.659909826525966,-3.166196249793424,0.47589877134667163,3.5061935021964805,44.36115243418456,-4.068865932835674,1006.2431148440799
232,3.197055674888983,-11.908504274766933,2.3711607695786827,-0.018525053142802422,0.025649763814815926,-0.06694428580572867,1.2980374336058436,-3.0614331299768383,0.3249899283422013,5.241599562609981,44.012180959343425,-5.373654984015807,1006.2416976467152
233,2.8882679049608275,-11.499920536349656,2.283524242966191,0.010272548118836357,0.021217021656457745,-0.08624528252844357,0.7682683604386366,-2.7338966349963743,0.28891164978835915,4.728333016613234,44.40369170215357,-6.360078710680251,1006.238890819116
234,2.928348926081343,-12.030824946061792,2.3903337389913197,0.01607142153031565,0.03497192474257364,0.13548617582586134,0.6639204241455736,-3.3050470426223146,0.3703926038603194,3.900372169424754,45.74327238652849,-8.948515395795832,1006.2344513909533
235,3.3927412165089152,-11.71713345116546,2.212969374670188,-0.04398838919019357,0.04903213126030019,-0.07585910097498802,1.1971085326551814,-2.9679547294523823,0.10225803310658305,3.0152508526832498,44.91432437892555,-10.426700052926895,1006.227356983211
236,3.0760830155790413,-11.276671323554098,2.1997073563741907,0.005375337527529493,0.04522168424308488,-0.04800721264003337,0.7331389154167379,-2.546550780059447,0.0930146985665031,1.7180100290764972,43.66529189851731,-10.258964709632915,1006.2204169448199
237,2.8668157239310816,-11.805803591642935,2.2483531182424494,0.005931026561766929,0.07158058949452553,0.11104622256133283,0.6001453835086428,-3.0404517639646165,0.12564094948133211,3.056164768163894,41.37653626881499,-10.733811487283692,1006.2135895719407
238,3.3254023168745896,-11.640848058663451,2.2664808352628567,-0.02904233544066729,0.08193747079397223,-0.027961256193004366,1.3650083307718366,-2.8405883497590603,0.07098139438801065,5.794860492266622,40.874320500554525,-10.096485341120907,1006.2078232032412
239,2.8089842831988907,-11.614345107020032,2.247152717267186,0.00646266869257163,0.06739360159611034,-0.11095928869965045,0.6016851014673343,-2.8835536094392324,0.008475103821247942,4.955925001286544,41.70187354718763,-9.09563917249695,1006.2036146548658
240,2.8170202277690777,-11.822776662296242,2.4339860445032633,0.004055336576026839,0.24143580264805053,0.01724974135097486,0.4549189070635187,-3.184728716030703,-0.06929771931290903,4.015604749400155,42.44382968022822,-8.50689910089371,1006.20316088567
241,3.373870379824254,-11.655460721374789,2.273469495263966,-0.05644639987745334,0.27962990733998383,-0.07850088431527169,1.3682825371486602,-3.01942377279693,-0.5080505574163698,3.9829182206861344,43.520818565708325,-5.491218801524166,1006.2047464633644
242,2.822070661272852,-11.648970375598525,2.25856269285469,-0.08891714172660684,0.26672056837896324,-0.1569960738780725,0.6272114194439327,-3.0568779835188686,-0.4058467390936461,-0.4991195368266763,42.812280865139414,-3.0093174133556833,1006.2089334893113
243,2.7529371639805342,-11.895423753597873,2.331574346243971,-0.07840078924077422,0.2947914867602333,-0.04575107178247777,0.47900678520650547,-3.252388470505727,-0.20646590199502735,-4.165464155279654,40.42059216073197,-1.611799918070032,1006.2119893641895
244,3.2716153649553776,-11.425764678065093,2.2636325168720575,-0.069868545342048,0.21591686467952245,0.018569726280216456,1.30419265966177,-2.679317538422786,-0.080134866202176,-5.704957970397473,41.507006273177694,1.1629053766641748,1006.2133954288843
245,2.8659261158417872,-11.930674699448982,2.436255711674342,-0.04797011308773366,0.13336614098844402,-0.1422486969250218,0.7239095381372264,-3.1917729309242064,0.3552428476966295,-8.847145629435264,43.684740530037224,4.841189475664296,1006.211989420092
246,2.815133272349272,-11.879862222719908,2.3904242110599014,-0.05068908314228899,0.15282193677255718,-0.02397015097733385,0.45713173675599333,-3.105976207670422,0.42643122008108275,-10.96789720439867,43.35928974688112,6.367235558650065,1006.207603590658
247,3.313079722358837,-11.535505214677066,2.2869609408133647,-0.05136291496585861,0.10908872884391868,0.05100771142978783,1.2116765312142102,-2.714443113261355,0.32745240620011257,-10.231356578831624,41.1336379833122,6.034289918467907,1006.2009810918664
248,2.857832716516022,-11.886415567364422,2.318834768320425,-0.04277434965206542,0.04913747312648913,-0.10905897711230411,0.5514399302859314,-3.1108937397837377,0.46467118438071986,-11.460857610007762,40.345337447179624,6.450160713419174,1006.195591180465
249,2.8247698169696944,-12.003764521181768,2.375159152779976,-0.03738568672958317,0.10387978989708069,0.024748207576944292,0.39432110238304163,-3.2226930242471377,0.5233603037581334,-12.88938019577271,42.81899537353541,6.913172841868061,1006.1913277965317
250,3.2806246898603404,-11.508704132347766,2.1449823995347743,-0.045199126056611375,0.09871650327940043,0.04952768678851077,1.1547901096043707,-2.684865647578533,0.2382391533304572,-11.424260549892688,43.33408366413142,7.098101416631331,1006.18854578283
251,2.8364142595384205,-11.807465752314181,2.2328959256252316,-0.04309433189427187,0.03316037597591845,-0.08735117652463689,0.5688095371225772,-2.9976434844456716,0.43914688954303305,-12.55153810185074,44.28852686620679,7.172215821628484,1006.1887209027252
252,2.6833452697957614,-11.919097330022002,2.375066548962293,-0.02395746111025934,0.06667736712972439,0.05205278709204619,0.35852768802950036,-3.0621736596785967,0.4987218479791854,-12.882592819276418,44.87246395024599,6.8120879942260535,1006.190497611332
253,3.220903414391707,-11.731899262648684,2.2109813680887354,-0.04527085009779793,0.06706836492668733,0.009596685970463037,1.2467311471323226,-2.8288110930932935,0.3129336522404472,-10.5612033884844,43.70933639248425,7.577562863029955,1006.1934432295111
254,2.755385083643489,-11.697508605764387,2.1203783454743177,-0.01775624274199462,0.00806555047865589,-0.0732032170935825,0.6459291233090679,-2.8233152861050947,0.36817387136281543,-10.490802065946344,42.785634684981936,8.68183355279146,1006.1976954262822
255,2.6459659638109754,-11.990366706341094,2.2141090438699234,-0.0009655621789187753,0.03634904666335977,0.0694637072895871,0.4979028459525118,-3.0898456062924584,0.5790432809392215,-10.56302202514756,43.47960150118066,8.468671699868693,1006.202138570336
256,3.1888133140074943,-11.839145204003266,2.1696839221044817,-0.03323727518172104,0.0006273994550694481,0.018038936187435593,1.3392012506064253,-2.908483937135532,0.48561972041096063,-8.619804878259364,43.679117222633806,7.390445640825092,1006.2071333344576
257,2.6910753000210157,-11.904099452348369,2.246703120323524,0.0030795993145893152,-0.026808579087493956,-0.08037033371122851,0.6233515288577943,-3.018056931149506,0.6239826121326424,-8.305515482987841,43.64867824735251,7.9884136545626125,1006.211809377973
258,2.6841897157207706,-12.013750135895556,2.237106551740787,-0.0019795871645783124,0.03290019171374675,0.016819681272277745,0.48765079044166415,-3.1271173574709428,0.504588471377308,-8.06101243419133,43.79646194134524,9.04082100712873,1006.2153250888026
259,3.2409233311168126,-11.540039727820384,2.1491292522498813,-0.0014545813489654723,0.023044772990584293,0.058823425954060156,1.269120041039412,-2.6485162670566442,0.3195745015196341,-6.075198401443915,44.097946933644046,8.00053687023087,1006.217952874285
260,2.869104415552032,-11.898362896077128,2.1785900135275913,-0.005121829139782398,0.002582283169435637,-0.09327376905216292,0.7272698776297762,-3.059198824505794,0.41007288128199443,-6.425238402835378,45.016124610730955,6.725606634534775,1006.2208395273715
261,2.8185884382540594,-11.912633702968623,2.241513071054723,-0.0210763506381172,0.03606995163671212,-0.0011865765472804518,0.5031958136183841,-3.0474627127682674,0.4533868667468911,-6.483205607942496,45.19640541615393,7.0408784667043065,1006.223172994257
262,3.2431778347772475,-11.64928271945287,2.1612597706768453,0.00461866805220771,0.004769270194281326,0.10392473373060804,1.2413195965398098,-2.7788357566443835,0.3340169946430261,-3.9762571830152518,45.490780605897854,6.560399480315437,1006.2249789900849
263,2.8690546340499115,-12.133738564418932,2.3392939191108244,0.0008367671832140633,0.01182400419473999,-0.1146434556593236,0.8357337315168529,-3.300159442197113,0.48507375050794366,-3.3254353514852086,45.0011418969502,5.563732715064788,1006.2261941554045
264,2.648771623009788,-11.962743843241697,2.2796077465791487,-0.02449791473198044,0.06721360023433225,0.00374807118191392,0.4784729583653749,-3.130521199600537,0.41603776777502205,-3.3461478261210194,44.12755819227594,5.855217865336791,1006.2269573047196
265,3.3026701143439117,-11.799464760680392,2.2212817621015426,-0.03954408444498052,0.08963375968384207,0.06915316265233303,1.4384428358950323,-2.9974133913106167,0.3064806226090652,-2.059998185300973,44.012688692254315,5.686687077720801,1006.2273494892173
266,2.972481020347852,-12.315306560616936,2.308694641607306,-0.0264250252152465,0.016618008447398372,-0.12452373139826091,0.8497190201182748,-3.5925087626905334,0.5290139597242,-4.00776436072005,45.530347455872125,5.964281966279773,1006.2257600280577
267,2.9346597638707075,-12.318818168300023,2.33155368292316,-0.020338322768047437,0.11016972991220716,-0.015561197759989001,0.6011347969766082,-3.63096663664968,0.47319493251859374,-4.7450479234803105,44.860020471307166,5.4052561828986985,1006.2241258455522
268,3.5632268793495383,-12.010040563210321,2.2912075784058197,-0.04963424053712058,0.13508801515317223,0.06478086668709204,1.4937891767678035,-3.335208323680138,0.3053149273104141,-3.377386771578365,43.77452657272024,3.760702465369569,1006.2215934429471
269,3.099634989495048,-12.49404617161695,2.4289228888268557,-0.04661867310344712,0.06257162717310168,-0.14106744927630827,0.8206924090361915,-3.876962468499203,0.45678878741178497,-5.536625838143911,43.277846242698445,4.752904920992277,1006.219137198082
270,2.968807878041634,-12.605842695779714,2.458731032061098,-0.05664475779658257,0.13687595178243,0.029139646661820118,0.5527340296457799,-3.9870553658222683,0.4442427656262884,-7.277647523198549,43.10989070221057,5.499186075961961,1006.2167365364702
271,3.6004909453411176,-12.30054465368402,2.2702260274942536,-0.060377892961951396,0.10910961030634256,0.007686378718458682,1.520883141887968,-3.6056940338260963,0.22945051035910125,-6.58820445519339,43.019001715609626,5.895538255297205,1006.2135209923057
272,3.0342266621411476,-12.451766811039057,2.3463250464191137,-0.03590875276339128,0.04702467386652584,-0.10828304315559975,0.6843570414495098,-3.835394925276958,0.42904324689842244,-8.359361871631947,42.53273617244652,6.691856275826583,1006.2103704326415
273,2.970070989346158,-12.672207642177641,2.5435847881486797,-0.044011622072963094,0.13106513461657093,0.06308572701135692,0.5819833053425982,-4.032940258725142,0.6417706714841733,-9.741420251180774,42.96610691166064,5.540919766436464,1006.2078440850236
274,3.6058902627382157,-12.37335348636376,2.503659245760666,-0.06708570258734177,0.09074392904984493,-0.034343199575565836,1.5046923078941394,-3.676332903029035,0.5850915478384178,-9.457422135045062,43.03244233774948,5.633155020692558,1006.2050314657322
275,2.9468229440808216,-12.303958771996294,2.3920179260872394,-0.02638275117876536,0.059189692645311175,-0.10210750688936954,0.6418569704567514,-3.6643718057989854,0.5285218026863279,-10.988889045443608,42.43095294150465,6.519106597137972,1006.2026283004071
276,2.9799719066306456,-12.627007347049888,2.729637558247869,-0.036699211107168936,0.11278180277591687,0.0803562708373097,0.602522008669526,-3.939764146566375,0.8746119302540654,-11.66097219604951,42.35972792324234,6.958834186231209,1006.1994727946957
277,3.5775451353939616,-12.412827581072921,2.5809823184631377,-0.078587382695114,0.09066288591329559,-0.08994908932936216,1.5031091006128716,-3.6760539252895086,0.6657518262717625,-10.857841480976603,42.513535711710595,7.05634799246012,1006.1962631242067
278,3.12425017100698,-12.185852580813231,2.5000094196104574,-0.008950320741092699,0.052514336859886185,-0.09148642697118219,0.8477468420467291,-3.524347166467307,0.7206804816954739,-12.404165487010093,42.094689016292115,7.552646991137175,1006.1914059521182
279,2.901954542459505,-12.667224485801631,2.575810055519537,-0.02765618790293292,0.11029266017705641,0.12156618652196181,0.619384008873239,-3.9709762063427623,0.7236986194959922,-12.819522614619009,42.170229038906626,7.707473365927927,1006.186047146435
280,3.4658861789417648,-12.616871278694502,2.6197831227609174,-0.05230184564213132,0.07314318642321851,-0.10438216918176026,1.438345485470033,-3.863239952437762,0.7855344361515232,-11.736005871285851,42.46988510748505,7.929546939313512,1006.1799718339821
281,3.0254461121504224,-12.25734906758111,2.5276509911966425,-0.000219642932756621,0.06751529617939833,-0.07749281190730373,0.6821522211698612,-3.596775713923297,0.7867026548148308,-13.124609075274854,42.0424411822069,8.350932801946925,1006.1754140733824
282,3.0406414467225953,-12.582366129701379,2.6525742338181177,-0.007254960425149195,0.15822451080720357,0.16456864079975173,0.8295668961977537,-3.9139215441345114,0.8120820379988001,-12.698497937616086,42.13683457164278,8.098702750324644,1006.1711396419735
283,3.2833018735119417,-12.86625613224739,2.63577808104906,-0.013844677625169898,0.06019637625166893,-0.17151321036073566,1.2455532689131186,-4.140422504395586,0.7634655313122115,-12.13575936777617,42.239386298017386,8.105958485037174,1006.1680199747618
284,2.516907801839394,-12.385266160523026,2.4751459655330184,-0.006467207519624475,0.08204245712921264,-0.08216340619172638,0.2972459866062792,-3.711922955848337,0.6051631582969494,-13.275500218756884,41.981164965573875,8.128801495190991,1006.1657431050264
285,3.1105707862253342,-12.396976230460202,2.5141756492749825,0.029987558708124345,0.11141061954193274,0.14733888444718587,1.1258580129570595,-3.6715445460995353,0.6641938146330626,-12.22594316361779,42.25901892538743,8.113058377926402,1006.1639576142486
286,3.101672446673017,-12.772759888352223,2.49872353453749,0.03661166874677424,0.05487980209384023,-0.16229527777744393,1.0755674985799533,-4.057550333659824,0.557760250200088,-12.633596823843453,42.051491357795555,7.854291079557099,1006.1625307533507
287,2.583062363406147,-12.383423429957034,2.3264471954990897,0.0195107012587223,0.22929219982391835,-0.12915602223854708,0.5183919651537764,-3.7738371816017438,0.12077272296145436,-15.186411427609517,41.39535655813488,5.6320182170434325,1006.1564396078754
288,3.024273097116643,-12.394800123280113,2.639050537166137,-0.018581510303842676,0.328095333741904,0.0702937746353619,1.1289104906372525,-3.85321590677309,0.1267289276943337,-17.073834456125308,40.51936458135852,1.632890380210962,1006.148139704513
289,2.9840720534193825,-12.936831417386188,2.704573729942047,-0.05165877266912063,0.23624794417957595,-0.2553039824470698,1.0294743455118842,-4.381068075060313,0.18490391609148593,-19.963234253825703,38.78996551381611,-1.8663398765549268,1006.1366200533103
290,2.6318040486738767,-12.70327113836313,2.650328154311487,-0.06928966194192036,0.26898261197632806,-0.06381526827883102,0.22313960354227613,-4.220095601431008,0.2830221951704971,-23.685983439559408,36.023107633185,-4.159327948204066,1006.1249147105602
291,3.302089819973511,-12.22560196368883,2.4514720438922,-0.0572997343707621,0.18882524106440646,0.02029180023960704,1.0490289400349795,-3.6794506199586476,0.29071705563532096,-23.957238859831396,35.00910318853354,-5.290529090198986,1006.1163716388662
292,2.8780117722575786,-12.336291647059765,2.466949282085427,-0.054770332957412626,0.10670110440685417,-0.1262586110915192,0.3709226820896502,-3.806816211090436,0.4661469621678247,-25.15998488164081,34.59537287262448,-7.009675026998141,1006.1103015965042
293,2.803117140537144,-12.422086641350273,2.5711554354729946,-0.04062557772505451,0.17849011151520774,0.044315502000081136,0.3008127465709558,-3.820821465222154,0.5977201185632277,-25.804098088584357,35.39164616056206,-8.310253255638337,1006.1094988012494
294,3.554309852904232,-12.454943467605535,2.4556816665812775,-0.0723195983370947,0.12358102167307167,-0.1072212427861417,1.3782577613929754,-3.769800977259185,0.5875877929200657,-26.292400928289887,35.91424041298777,-9.77224893534295,1006.1101701931296
295,3.0040115933739067,-12.275000369672464,2.549492226811761,0.011551794019705713,0.05992295037878752,-0.10644630588378967,0.4763046857705947,-3.6885033548819774,0.8208149136107483,-28.401734761638494,34.31386368105764,-9.08604627788012,1006.1121236405226
296,3.0187513364099665,-12.718209482112924,2.5165317609671223,-0.018552088405973614,0.07990786556963797,0.14588732107684033,0.5153373808326747,-4.112291299693231,0.9143145795456443,-28.84073093610361,34.02680992608078,-9.017425755507745,1006.1155693099638
297,3.4838160215413017,-12.702162769849688,2.413865740938769,-0.06072461088363447,0.05938163733754964,-0.13699979651430677,1.1240951188560535,-4.039492339782611,0.8081973706434011,-28.411210551738836,34.38267086136868,-8.600122084139398,1006.1230101387687
298,3.128453816665638,-12.311916675952283,2.2752258337995843,-0.033540415913504554,-0.00236508279542659,-0.09210211194189813,0.5476013971416044,-3.698965299274291,0.818710934490195,-29.734591704018356,33.71698607134194,-7.0698773410760065,1006.1306050028638
299,3.4644161593469476,-12.133344260652255,2.434236763263202,-0.013432930342290091,-0.017112103578614833,0.17259409441863585,1.070795962603052,-3.4374312211311446,0.917224080067299,-28.488188346978866,34.800086461143934,-5.605033022085557,1006.1414452902477
300,3.337633322472152,-12.60607723960724,2.523200398844979,-0.04015199097045692,-0.06920001419934593,-0.1444273929985622,1.0060015259536352,-3.8488252266390437,1.0312372319300713,-28.035081553077358,35.333992542163955,-4.195769160800837,1006.1526958672789
301,2.7857010740443995,-12.124723027353983,2.399422212366818,-0.03104045129737634,-0.0186465898136882,-0.0051664950857334135,0.27567283040737034,-3.353483124336394,0.9920389885348248,-28.367933811910685,35.31124195091002,-2.2349752937167793,1006.1614016870619
302,3.4250995831701405,-11.958054852981183,2.2923189400099857,-0.021203953326729766,-0.031182722772873216,0.1221922059659209,1.258848914239947,-3.1585265140465104,0.8596891063292262,-26.666509622700374,36.472843573465255,-1.1718049018537249,1006.168250231575
303,3.1518249340494116,-12.544110725539978,2.5096165234115824,8.87325537062833e-05,-0.06001148834148971,-0.11388709685124984,0.9347599033371274,-3.778787436817008,1.085440206703907,-26.5214052570038,36.65673432614072,-0.1384592341492148,1006.173764057298
304,2.855736949176835,-12.385457946214308,2.379581865452501,-0.0026736399608341174,0.02357998616301639,0.03675724178154696,0.446029937774791,-3.631324447863499,0.8469115640443381,-26.92276227066196,36.51186482673957,0.5992321325319897,1006.1777882887505
305,3.5577623737487367,-12.038543253522455,2.3173728914449674,-0.024347737618259417,0.0438798443467283,0.06091858693262224,1.4717181585192145,-3.269151319411348,0.7518332556730123,-25.069655575638475,37.33328727416693,1.3371851742782752,1006.1812818708747
306,3.04818876486633,-12.514280106104627,2.505001741964182,0.026317296080024623,-0.05659364025379317,-0.09025569813075142,0.7634290030292731,-3.80031933422355,0.9492751294104762,-25.238712437142265,37.09535142499838,2.459667137262464,1006.1838316400864
307,2.842503103219689,-12.855373603309854,2.4993798867066515,0.04008977292708437,0.04726936092142664,0.07129213942181954,0.5973670115756685,-4.127088441831525,0.861334037365976,-24.689028538892025,37.51712765382552,3.1461624265125887,1006.1895674238535
308,3.588801074163546,-12.516553019076419,2.3048471604006697,0.00869744320603709,0.007346521603179404,-0.02937973883028433,1.6598809178083562,-3.7600971170685282,0.6087238358659077,-22.852954029630308,38.30838373761917,3.627420305174569,1006.1991332706531
309,2.96048139923066,-12.52095081120857,2.3251622021017218,0.057952198812763395,-0.014977858604102577,-0.10207161062717478,0.7671694589915972,-3.8801160367508496,0.6620590252354067,-23.482945473171306,37.89703614705876,4.449176332451952,1006.2118035238713
310,2.929490105604487,-12.798653064751159,2.477845935682359,0.03519329204332194,0.08461216901428406,0.06195109516545698,0.6562589355291517,-4.1376053628647815,0.7554117621238042,-23.4904156429785,38.01648933016367,4.7401003079116615,1006.227873084295
311,3.6235873907513425,-12.553583129157879,2.3833560145726076,0.00833387619750657,0.10276401412131017,-0.01939910614465261,1.6808904827749507,-3.839573638397781,0.4309527409352386,-21.87525598410462,38.843990781064214,4.004460302245321,1006.2425282255475
312,3.0219226527424006,-12.75658174605865,2.4258908570549997,0.0028002178098393013,0.06886520027219345,-0.1563565712285407,0.6239391597355235,-4.262877990345699,0.4409073715817017,-24.126387868402396,37.41044169300939,3.2050581516512864,1006.2532241893549
313,3.3303104075819814,-12.99346050639549,2.6554424599657316,-0.0219715858199849,0.14788486707363407,0.06780363008016171,0.671493388535962,-4.5500809378512646,0.6513310757432282,-25.848084900996714,35.66083598452674,2.517997138151618,1006.257794640992
314,3.864561825187198,-12.413385557847588,2.4223766774981694,-0.034961781148839466,0.12059472854647,-0.052749922777381913,1.5506314234882101,-3.883714246884966,0.4460433153295977,-24.796082032304877,35.52911266569836,1.3811751303586448,1006.2555240750194
315,3.2242958981890837,-12.404340532721317,2.4445859191256405,0.006253162777543578,0.07561798505301114,-0.12080499909505192,0.846066129697609,-3.897222199132679,0.5783621116150379,-25.389258653273906,34.80806036562202,0.42739128094719026,1006.2469414620574
316,3.132448225951402,-12.879902698487406,2.65108576812383,-0.01162155610736524,0.15303049326874618,0.06351688222188322,0.8029716624949556,-4.269502975777154,0.9337486352806537,-26.2489220595963,34.96037851517492,-0.20786889468579206,1006.237503429968
317,3.8360686587576867,-13.128611205492506,2.6544285566729147,0.009178667028013045,0.07749042464785065,-0.09902668507411021,1.8802317159093205,-4.483616996284171,0.9375708431102098,-24.893797935525217,35.79975350124228,-0.05406174484949133,1006.2305532751028
318,3.258674499045242,-12.928906309844384,2.579432599908267,0.05983733097506877,0.07113563314477908,-0.11266994569279241,0.9901232556428636,-4.371418288791404,0.9230203347447614,-26.39622008477048,35.183876421801884,0.14137704209226387,1006.2254188819754
319,3.0423057237755815,-13.209069742791776,2.5123786356913604,0.07085774034901081,0.15107635391570345,0.15118337082971078,0.835518693515642,-4.633203715789619,0.7216993833727035,-26.462041217739607,35.55415612535401,-0.05244373982022432,1006.2214035820834
320,3.541579700252106,-13.226663781356988,2.521193561058047,0.01620615761448676,0.08992966149429146,-0.17728321532643954,1.589203320983077,-4.584138160474125,0.7847369654531603,-25.498369647510618,36.33782318439877,-0.1333071920817171,1006.2184730403998
321,3.1015783680973414,-12.591109137154415,2.1681708845662593,0.050593564864177425,0.053881878589335214,-0.10757182035226133,0.9001802812976931,-4.002373027387598,0.5001487225191419,-26.653085296032245,35.68611102902363,0.2912954717636251,1006.2181890953069
322,3.351558681408287,-13.00404964263474,2.53095821727281,0.04846609005763596,0.07513688617860326,0.15443751001082606,1.1795118341520459,-4.3862113545571795,0.9145636977066961,-26.06375560101983,36.123544943205204,1.3590530247214347,1006.2182911886073
323,3.5540130271199235,-13.21785384923541,2.494616092971771,0.03247546757175397,-0.02494883660939924,-0.1896686127702532,1.4504874835099908,-4.568550313637209,0.9861472432491891,-25.276864049370857,36.567826506840035,2.7016924663099346,1006.2193550128162
324,2.788191010269126,-12.738775884947636,2.408862947738633,0.06244119422258465,0.010480176992316306,-0.05619757075938098,0.4380342620815332,-4.139652835543897,0.8684663935467826,-25.36386593575844,36.51017819880244,4.0305381840513235,1006.2234497670572
325,3.4060663252374894,-12.524845505146194,2.3857348266819156,0.062104466848408646,0.03436482186061354,0.12808371155180712,1.3499330513950993,-3.880639966544049,0.7880212949304071,-23.175255141615214,37.64522974300143,4.865470638579569,1006.2275102778526
326,3.2916647122043594,-12.98051082574135,2.5912688424206283,0.05095872437111772,-0.06117391085524987,-0.15552733436732588,1.126714739652754,-4.3541940309442415,0.9933818217631132,-22.59879065449561,37.88884403698801,6.066940166499475,1006.2310508701019
327,2.9495015419150765,-12.692524184315998,2.431477815644444,0.017622317337957834,0.04142152117424759,0.0027894712362385443,0.5031533986837071,-4.108805594825687,0.8159353621663604,-22.665966615179375,37.90812649349525,6.803253901792579,1006.2340472077404
328,3.5510013571704784,-12.442013426004745,2.456148211125318,0.02348904176763523,0.05965601848257798,0.10533797103604473,1.4153423983895168,-3.856687777348319,0.6810021449218644,-20.658300810362796,38.8803692662716,6.46151574317126,1006.2362340661532
329,3.1486230173362246,-12.833893867735185,2.536634949236684,0.019564399136628188,-0.030909480690194377,-0.1074817293719049,0.964341652307803,-4.2173916475102144,0.7522083692154969,-20.885659645476668,38.977409165537956,6.760359581045938,1006.2358720389576
330,2.923326135361052,-12.385613540558943,2.3876278764898013,0.016156841643025447,0.027517973399807612,0.0009140214816398678,0.606724875909402,-3.7079957570033,0.6243507982498604,-20.559864096729576,39.28931626433396,7.467537056333527,1006.2347627670271
331,3.4138307088109086,-12.16374700793565,2.379793974996597,0.022004597175946394,0.039015147909511605,0.121054327322183,1.4241760889809951,-3.4622994940848026,0.44540131658854615,-18.307981283151932,40.18773311916692,7.345187042277685,1006.2336233110644
332,2.925412527564816,-12.560031583705246,2.4633495238121363,0.023997466488108986,0.017325106505599572,-0.11193080067476031,0.9166805609182637,-3.8709300093942973,0.5520269801168178,-18.11623498346118,40.389431642841025,7.4136019181545025,1006.2327916862083
333,2.7192354428736403,-12.314469262773223,2.2950273432148482,0.02312919366802402,0.03777742649062614,0.00853941717847366,0.5269805151148814,-3.612661476685588,0.35986580949924657,-18.65481939567551,40.36027502121887,7.291275554598124,1006.2317106058211
334,3.2853014853527407,-11.930699857706527,2.240465004324563,0.016827818359182192,0.06929193126992864,0.08033554799409863,1.4034807533224662,-3.2113638174987464,0.22214826310010158,-17.175631190005696,40.930761688483926,7.025882714388603,1006.2308082554853
335,2.8743644016170746,-12.184096825475024,2.2523333904265015,0.0367591167686767,0.04508100688760189,-0.09677588549632042,0.7866833865312337,-3.4973209404175156,0.13620087572088302,-18.101796649477468,40.61305752138711,6.882269848857944,1006.230036350167
336,2.723156144564033,-12.217040924667735,2.357042120637259,0.04627292001646199,0.08224377469048269,0.06324496742717968,0.5032235865489829,-3.52260013380545,0.1690418094643942,-18.860619838893655,40.45717460183011,6.584984831715092,1006.2289783238415
337,3.2898808481345627,-12.006118669199962,2.2059934797195857,0.01938645498391711,0.06981607862194429,0.01190396278601493,1.4408552537479486,-3.2436142123817273,-0.03481178341008001,-17.26522979254872,40.996049286786516,6.630466324416148,1006.2274434789141
338,2.8448690700654247,-11.859765599840204,2.2179891711921935,0.04387340169946047,0.042298361800089265,-0.08755616988610121,0.8047223479105955,-3.0931355434478993,0.06313802654599493,-18.030326896564723,40.76224686045128,6.974595685569641,1006.2263232818781
339,2.6140880126983013,-12.104529630380483,2.387434267696862,0.05743255991914922,0.11321205881344398,0.08441240183875856,0.48725629871433235,-3.332956241521488,0.1588883037464388,-18.373237971658565,40.88635409319569,6.326645837294225,1006.22575317612
340,3.1954862487079043,-11.903592457259908,2.3326807624370494,-0.017855648480494576,0.14581631315550697,-0.06949909463714427,1.354430360768801,-3.1205934245991904,-0.03568460404747062,-17.91915856849568,41.15292220275546,5.282103837713147,1006.2258522758698
341,2.938101106995281,-11.733453351071331,2.4170702202471674,0.018340434560379766,0.16693893668581408,-0.12580267993100003,0.769497545994263,-3.0406152221747913,0.03321165714531041,-20.553547189533262,39.92613866680061,4.427766735854391,1006.2264397911026
342,2.824499210579695,-12.08852012037424,2.2861231845488317,-0.006619354672123354,0.2179716342003408,0.08141812944938759,0.6509344815466379,-3.3847275955580867,-0.07719963160221752,-22.532958156805496,39.12980222476279,2.7810482086721215,1006.2270336508913
343,3.3643266835839882,-11.950139853414445,2.212542407028103,-0.05015031522035587,0.19857474162320415,-0.12895699772785937,1.3825620987453089,-3.1973642157116933,-0.15847146878275925,-23.08238002523539,38.908760563020664,0.904490233674035,1006.227467075769
344,3.085987348934849,-11.710593851461647,2.25923544236181,-0.018193353573694372,0.16463846630753715,-0.11268163238154172,0.8041033080428029,-3.022751860631233,0.041405351603417656,-25.432344870661506,37.36645108223304,-0.06453783793283974,1006.2266908965029
345,2.9297037240125925,-12.137821635548255,2.4158548309191104,-0.02171765282071029,0.1393932215591503,0.13087881845322322,0.6567547868413146,-3.409535084707938,0.2579580816898338,-26.19763161575217,37.0385868804574,-0.8550801549227216,1006.2255473532184
346,3.4063276698300924,-12.112459601894363,2.4175204929955925,-0.0538061355778976,0.09962975797618343,-0.11541412278947533,1.3345697464602315,-3.3212367281342883,0.35368370531033844,-25.82735635075474,37.29333385049328,-1.2451161533944477,1006.2245479499666
347,3.1392123197440713,-11.731677516004332,2.287882557119484,-0.022354723468766803,0.08000300356219132,-0.09940833451168196,0.8062668010280073,-2.987798985069833,0.33838159889803815,-27.380119826029972,36.30865857789319,-1.2667249723558025,1006.2239214712281
348,2.8814446088180325,-11.961218296795092,2.2843073871433894,-0.03244175051338673,0.12919426791355912,0.14409759262813873,0.7205706654156175,-3.229878195274819,0.41060923342350475,-27.17152155459053,36.524672005052444,-1.8349945910463066,1006.2234642396124
349,3.077675793296613,-12.164804540935235,2.2291285500050257,-0.04812474511317034,0.05921906678275182,-0.15661562665332687,1.097795092651916,-3.376101799430588,0.3019758182527919,-26.69340721671087,36.86725624761739,-2.329234590603598,1006.2233366611476
350,2.9980076415988446,-11.357563274490841,2.1666990966716426,-0.07817678840785469,0.03509497366933491,-0.09787000928712924,0.6508771887839218,-2.617989490761922,0.3987599007323365,-28.564648033982635,35.38947870295356,-2.78510028601166,1006.2238824682387
351,3.002972824701819,-11.704809589944169,2.1215455018385154,-0.08331086961290905,0.024168530786589253,0.19375007001433353,0.8135604006988087,-2.891745774911511,0.4859908396489454,-28.548560704073584,35.618830257789796,-3.2170796127526944,1006.2249197415947
352,3.215171364481709,-11.962551632170996,2.1936582017928923,-0.07096811917057634,-0.0336893268304144,-0.09465586208492949,1.3248621781866023,-3.083704976717932,0.4917425261446018,-26.861064652800774,36.6054519899888,-2.820787914446206,1006.2259653159444
353,2.454587127930851,-11.634204190445919,2.038313737825261,-0.04851088667150328,-0.014164497001143327,-0.042179271756820354,0.34507963541511244,-2.839176733560904,0.3350354010393375,-27.43873133556327,36.139468381320654,-1.9696939582148165,1006.2281507943442
354,3.0198901216406413,-11.58169326758173,2.1320708776538053,-0.01686920053994171,-0.008867968607303534,0.15776152590118558,1.1360783396968048,-2.7776504957708226,0.28434422559852024,-26.28805574189952,36.78181543810971,-2.256499951331993,1006.231106088705
355,2.700566278788987,-12.033371952319847,2.22699318023719,-0.04748612589467203,0.006741076642581077,-0.10205900204410384,0.7082205019574797,-3.2503913044686312,0.3395991421324088,-26.755268348721902,36.497659891998154,-2.2895886425826153,1006.2345202989464
356,2.445333631856616,-12.052474557814598,2.299243924521754,-0.03819133321265412,-0.0043290928072269065,0.04709615748880053,0.3814460394727276,-3.2415246645236526,0.5692702523009967,-27.116461539607407,36.35305826575724,-1.7738872399873897,1006.2380427850308
357,2.9891485435642013,-11.674679521637085,2.145711240980566,-0.012758005966234193,-0.0017550010637713497,0.11008280042852225,1.211742235306173,-2.8359721441645007,0.3732501342779079,-25.57244942643827,37.193731786428415,-1.3682633913186293,1006.2417472250833
358,2.6653969992615054,-11.982628814371957,2.28162265991093,-0.020725159555398394,-0.043952177142986194,-0.08668199289908093,0.6647266164916741,-3.1673560852485574,0.5165808556954558,-26.199853459632518,36.9774177028744,-0.5823124970664867,1006.2465737751569
359,2.6939752848252168,-12.100184670058889,2.3392451255157036,-0.016032181942983184,-0.020948992933365957,0.08898864267749221,0.5400716424126552,-3.277277718223539,0.6298658521968663,-26.51134896467278,36.93682997789344,0.4810092268073841,1006.250549995026
360,3.3375470078486997,-11.928643120009454,2.171254559922512,-0.04198238659607323,-0.020999758049013727,-0.007248190119202677,1.4180816505953455,-3.0895246244182313,0.37421218911771825,-24.928884335569112,37.705021163860245,1.0400522750405958,1006.2542970630284
361,2.9097480230563515,-11.745930141538198,2.1551543906552793,0.010481159523913035,-0.02591097279844773,-0.06860750099402774,0.7816838100819435,-2.948087034020484,0.3189940425951374,-25.211066651113526,37.58575027565121,1.7329990592538116,1006.2572995621396
362,2.8259448083087575,-12.278354481402365,2.276612578123067,-0.017387334094517534,0.050258905374829424,0.1392669537494335,0.7035836547053289,-3.487484716469718,0.470873870635903,-24.967086448259955,37.69071616213038,2.3932715162762803,1006.2597178486827
363,3.3167820946303155,-12.253505828300007,2.222756490932541,-0.031260695574789804,0.010776716331312636,-0.10653360761024255,1.3786530974333027,-3.4317644756787855,0.42624997818673527,-23.83499271673372,38.139873676278185,3.2374487141991724,1006.2614828200942
364,2.916649303799855,-11.762663896882133,2.0868822741780897,0.02026171376424965,0.04284855704915905,-0.08626432421854313,0.6577330552877834,-3.0478697259520016,0.27837143965486033,-25.218253342061764,36.21168643252253,4.433766183078066,1006.2627296396147
365,2.9469835229751586,-12.089584000244734,2.304615765091917,0.003091083308821973,0.060709169697628226,0.14338275671260503,0.6650115155503276,-3.3837038312035075,0.43701268756836764,-23.142260974136178,34.41614718002249,4.727844919717343,1006.2626503110487
366,3.2495396466449122,-12.086400232950611,2.3613903742921423,-0.04089468812804399,0.03261882013038003,-0.10762462126617978,1.1094343085209133,-3.3327883304899704,0.4461085745279271,-20.62140483081367,34.12035806885605,4.2125009853184725,1006.2618092307293
367,2.731439451814214,-11.621450556327217,2.2032499416935596,-0.03356672676932715,0.051807206581192755,-0.06449295753520815,0.5134853555498745,-2.8792394055139026,0.1890261235016421,-20.613784187104077,35.294701446686844,3.657201089329359,1006.2604121906247
368,3.0743260768566993,-11.502435566762221,2.327180437641231,-0.017398886063555125,0.08232129746138968,0.1547395961396197,1.1565892554789123,-2.697109033702101,0.3046615159086685,-19.596168270168913,38.29802089765641,1.490476499205092,1006.2557443800976
369,3.10457365962878,-12.153910022909113,2.5019929720005916,-0.021559044749182465,0.0067355809052711685,-0.13978325862934185,1.3128703038859564,-3.313777043551724,0.4581423669438837,-20.943684290392497,39.521000704177105,-0.2658206657229587,1006.2495344667258
370,2.425652269656206,-11.693718390975889,2.4852381743871725,-0.023694428653197146,0.0625234075284096,-0.03544344075448479,0.37037831369692886,-2.9195769633856483,0.39906309578262694,-22.29393745401971,38.86348653780102,0.4990939964087103,1006.2428171765849
371,3.0939809542602195,-11.715368101532658,2.410870703026095,-0.001594671748789512,0.07100969981910418,0.11345684564200813,1.2545849403213705,-2.8950430845714954,0.23695289875162115,-21.351098311208858,39.39734963425075,1.217657727351478,1006.2379146041026
372,2.6575032971234345,-12.1290370944978,2.458547298097827,-0.00884197811859666,0.03817989348937988,-0.11452405547242157,0.7127584839746524,-3.322920234699052,0.3268708005479566,-21.979034429019883,39.247164011851005,1.8026470993340828,1006.2343364920305
373,2.554434315889065,-12.154129014352547,2.4195557227847333,-0.0027955568303439865,0.09959986070544738,0.03193428921649909,0.4169883596655416,-3.358157953786738,0.22991513465995406,-23.25085702552446,38.79733297531868,1.8816969756504591,1006.2320343580241
374,3.2197950631329277,-11.986092066137227,2.3600478314831235,-0.02887088661708971,0.08549600335536439,0.007248208181180535,1.4083274830389234,-3.1647872722632453,0.19148144862647842,-22.291384103908324,39.27001658865976,1.4284479603687061,1006.2307045524268
375,2.7286717272971894,-12.047704305751106,2.3887002124319374,-0.021865580726314587,0.07423478317872194,-0.09384360469053814,0.6319558225534204,-3.304377364268369,0.3310431759307969,-23.918595357446716,38.42899521266449,1.4094865463275688,1006.2293836094655
376,2.755760683800824,-12.277883766323376,2.4704845834431253,-0.012280163614060858,0.09645253011578975,0.08286985039997459,0.5515379678152044,-3.52381471999355,0.44843805273349346,-24.91828257990415,38.031139691878266,1.2123447735857904,1006.2279659351709
377,3.260871381454474,-12.048696581028278,2.286751422616701,-0.02933574921310283,0.048928523987590476,-0.04284373772733675,1.3854062298594272,-3.275507283011168,0.3240825938216995,-23.749577720746398,38.561062541208145,1.4321406658850486,1006.2269312543934
378,2.9329290037192566,-11.87746834411946,2.237218424379654,0.006515872875746807,-0.008966398615432858,-0.08502981534194454,0.8096416044502864,-3.1510026381151968,0.3306175857978678,-24.723564200023365,37.99518781977176,1.876939122329671,1006.2268563523968
379,2.7359497820420327,-12.369238010028988,2.455496019540078,-0.007835391971735406,0.06899821807793938,0.10953610534574731,0.5551798642457733,-3.6304370235427723,0.5423315667508237,-25.028717171740162,37.842415426107905,2.175584487682681,1006.2268635514123
380,3.2706170790350795,-12.340404499911914,2.4297007770187427,-0.04879470671494951,0.05231683007639175,-0.0963455734635798,1.3403981467724253,-3.56960030039788,0.4601561163265844,-23.83293197895376,38.41391141332793,1.8467855268299804,1006.2270336008584
381,2.903249355408651,-11.868605576259561,2.3826667189945656,-0.0027460950728917938,0.045542530384408496,-0.08536598631462891,0.6309842228827011,-3.192196911757277,0.4343243143498792,-25.23554552761525,37.55803672498011,1.9966489157265639,1006.2269929151009
382,2.766581191386572,-12.266536890715852,2.3865910871817113,-0.015435611245160182,0.10997550531875219,0.1338572695663283,0.5274167183413919,-3.5718851222336907,0.38226472808020406,-25.401887475475974,37.502814748791586,1.4396691227980882,1006.2245310044782
383,3.283228960018855,-12.304322252502148,2.4373872011168434,-0.04316732013763054,0.08841731125234442,-0.12575677049294334,1.2243719490772746,-3.5430467138828114,0.3989574265567117,-24.53080506430464,37.7990395866956,1.2761380652467287,1006.221940745509
384,3.0043944772916653,-11.704982360447211,2.321883616889247,0.0022210341034972075,0.08249002503353242,-0.0866078910676282,0.6455310405376496,-3.03156218082131,0.3415556578892737,-25.831904745583373,36.92927596478669,1.340938520720497,1006.2192568122963
385,2.9287378283214256,-12.10803045670505,2.4246046574305318,-0.020454955612434815,0.13906612764470438,0.16148248921589137,0.7319021987791366,-3.4129057373748264,0.42716297022167077,-25.453885754167388,37.15990076756842,0.5659816137065435,1006.2141649587243
386,3.3319446697543396,-12.354103763332903,2.4381662188269067,-0.04931805913414827,0.07279037142171432,-0.16225392979399184,1.3738244949769969,-3.612549400918539,0.49136191056276474,-24.888585419240957,37.46653451230352,0.22289999793970766,1006.2078927531041
387,2.9246184732984704,-11.846325053989414,2.443295499497949,-0.030867064276710352,0.058873444617400836,-0.0645582116358397,0.7319466854976233,-3.1973384357115466,0.537138442465555,-25.925537006131634,36.57938870735794,0.07595503072321247,1006.201254001054
388,2.822702378553237,-12.544716834463877,2.54301449618642,-0.02772075687553431,0.14458657647817813,0.1809707394495455,0.8059596268104596,-3.8936278332851835,0.6126389915184385,-25.776037125432744,36.55292877324993,-0.7967801633935443,1006.1964087491094
389,3.388996742568299,-12.94365098012187,2.6471035392780933,-0.04146768413485879,0.0889971749324947,-0.16657977206845448,1.5767325108421573,-4.252323396853148,0.7434823334817253,-24.930130159255306,36.847024619229565,-1.49599146316969,1006.1929343378482
390,3.0165369089418466,-12.695023072750427,2.606496184402143,0.005042954600626946,0.07296572278225702,-0.10956281425869606,0.8194154054692961,-4.082639975705822,0.763499918055983,-26.445735486857394,35.68948074850415,-1.2668155258727483,1006.1925009160126
391,2.9952890484317383,-12.926260730186629,2.639904894931777,0.022181320425866548,0.148267608540316,0.16056454193185327,0.9696990517984855,-4.354696894109337,0.7601309451883043,-26.081035420537958,35.9176867317091,-1.743089919744108,1006.1942456075186
392,3.180704279051252,-13.403703989449344,2.6590009957954672,0.00820690403282118,0.056198129091851665,-0.19090873741000358,1.2403220340876169,-4.815409993448603,0.8611751260157744,-26.068119126212324,35.957060929201006,-1.9925617979240446,1006.1991671492616
393,2.8878312565711433,-13.004465776753182,2.5638453610289265,0.006738194637592774,0.09533217460860105,-0.10158420886772856,0.6884284402710023,-4.43597546501047,0.8533893917385962,-27.10172742320269,35.282895566924886,-1.5568769617030895,1006.2038721495236
394,3.143470004005426,-12.825364613221426,2.610991723380827,0.007566166483719725,0.07806108421604814,0.16841468636634427,1.1263536750253247,-4.24913137847916,0.8770668329730001,-26.39276056311263,35.76103020498111,-1.6176046922786496,1006.207306064738
395,2.8574851956563205,-13.199311456827164,2.7208100537813267,0.0037652107179419947,-0.0013433388307571847,-0.1381832952155198,0.7952524907257842,-4.639844957698074,1.0555741602265347,-26.585957200942758,35.624870766987975,-0.8105331213202277,1006.2098122864261
396,2.625736418411489,-13.254255693087384,2.4854946237430022,0.024663052398589506,0.0339241511698228,0.09784648658494924,0.37198628381996623,-4.675955920691794,0.8867124809825075,-26.956626152399128,35.470708341804674,0.18065400357770334,1006.2114766414676
397,3.477993394950477,-13.370569187505765,2.534106687911034,-0.018725813696647706,0.03283822291993659,-0.10691007940394456,1.5067210605921448,-4.6933674630933995,0.9079368999726002,-24.601082009917832,36.40422414582786,0.9446682662260812,1006.2129593556181
398,2.6733330918148592,-13.094081006124641,2.3521451995303946,0.002196810015749555,0.04204456058390651,-0.07165166072874983,0.23215105935489677,-4.569376745657985,0.6867497774708953,-25.902534793895068,36.55747879150941,0.8165352579278038,1006.2140415053303
399,3.4777261346076003,-12.790302604184934,2.3452009728747174,-0.007370515743095777,0.039913092753527855,0.10960524190944222,1.259846629107128,-4.213981763113598,0.5722917189497907,-25.65410013566001,37.64669921107619,0.042992680301340624,1006.2164698030007
400,2.9598068371655817,-12.845749741662729,2.4419704630837575,-0.01138930961336119,0.017513711366331484,-0.0728604969650551,0.6231200649600931,-4.263228298473543,0.6415211131547083,-26.054659844222225,36.841351162315114,0.9155466715748002,1006.2198805783961
401,3.0812389467327406,-13.030659525875675,2.483695888579035,0.0062309061424068255,0.14861891065277544,0.17545891720265627,0.9104957489128929,-4.392198284051415,0.5341936853144669,-25.13994783466764,35.61472344653074,-0.24184344387472723,1006.2241632085656
402,3.420036101323768,-13.436015650135081,2.5524401312834106,-0.0190518323211203,0.043434704470228055,-0.24206017274863517,1.383514797220601,-4.821121595826915,0.5062662475806071,-25.497795500906964,35.00893245602095,-1.2044153859694897,1006.2284843008292
403,2.7724084369113586,-13.255992392498612,2.606543393405089,-0.019759502543379884,0.13449053572318267,0.0418627985387065,0.3931882182599973,-4.68223744566569,0.5242896885414,-27.166783564304723,34.30682831223796,-1.629124947788665,1006.2304631138103
404,3.5336046451494347,-13.0962701185868,2.3817301347683126,-0.054754902852193116,0.11093838088466987,-0.0805995974844882,1.5041113657126615,-4.5066795225596925,0.2900874280006486,-26.27565705086003,35.16001275941865,-2.855947224371735,1006.2319073381724
405,3.1079894852819865,-12.936334773306681,2.327380680407127,0.009016269305342883,0.11835587310823875,-0.10837096154046735,0.7776244269440443,-4.427379115322203,0.3962163883052329,-27.976701152168804,34.157299638228594,-3.3458012491103304,1006.2316835574696
406,3.4327239501772655,-13.169137025880019,2.594448673834257,-0.018400713441696533,0.14725426041215206,0.11604550493464416,1.321152468638402,-4.628503753262348,0.728331709350571,-27.3305858877517,34.69500869579308,-4.316923168932164,1006.2269445967534
407,2.8893496442907747,-13.397240128357945,2.6761291649493395,-0.023318237881004195,0.026533062938122687,-0.11967783656778422,0.5783324905389752,-4.845722048211959,0.9347401735771202,-28.265032928210317,34.247867640987,-4.21281641484538,1006.2223933839915
408,3.1060014881645484,-13.613389781796018,2.8788062179052445,-0.031203063184104193,0.08420472591534786,0.14306633553408396,0.7170801261720948,-4.998900048923901,1.2017674616767264,-28.615145708535366,34.3341772095331,-4.033043085126917,1006.2172373489502
409,3.562688738749889,-13.603544428263858,2.8033273463319293,-0.027360413436479124,-0.0032552111332323774,-0.2007423277578854,1.371326257194983,-4.956896792659215,1.1656541496307622,-27.898956646559377,34.898646396934296,-3.5431406182683567,1006.213474248804
410,2.850697208450842,-13.30838709897859,2.6412330290148964,0.005273990617982033,0.04070843739774592,0.06042841829738213,0.4057866406986034,-4.683527319703806,1.0530256970121339,-28.87359823062974,34.39965501926837,-2.3969864681455073,1006.211593354041
411,3.6919846028802796,-12.98819590761091,2.4593715525665885,-0.004051266539396943,0.008354585148246045,-0.01292970608990672,1.6301221123524985,-4.331025748390057,0.8985914568864656,-27.01011838156183,35.58807521456775,-1.6675606113933887,1006.2132506667544
412,3.226756139327131,-12.95386237072001,2.4439574675590476,0.020588619017845602,0.0011339228407567124,-0.1054253265586018,0.8325794446562437,-4.372713801649974,0.9924601621459688,-27.97820085299934,34.9630320014148,-0.04163148430571728,1006.2153671605466
413,3.542617234722796,-13.187984820441455,2.5552023914020126,0.017490608174136696,0.021875261886177447,0.1373260033630453,1.2971092608613803,-4.571653523935867,0.9974444425395743,-26.762764548463988,35.75822715994044,0.6881320267779827,1006.2208072528124
414,3.1354876925792814,-13.397758661441268,2.6665397167112785,0.013723956895575557,-0.006815258437064861,-0.15559402973828496,0.867778678928459,-4.806396631513227,1.0469603104640015,-26.470694492444807,35.9721951374748,1.6047960925493887,1006.228487725617
415,2.9252896838015476,-13.406721246931049,2.540178159246434,0.011018672840516124,0.08122272293677421,0.08225649105632052,0.5745405775398345,-4.793749732315582,0.8768918434081798,-26.456248698853383,36.18811271413358,2.0612651273416303,1006.2347528573747
416,3.641988557097341,-13.337226873853163,2.4873523906897685,-0.023617129553791333,0.032845474693302894,-0.11658175666368378,1.6335658422265997,-4.6713411356275705,0.7914192051848639,-24.787391236245817,37.04144385368007,2.3712653761747036,1006.2399850112611
417,3.241799806467258,-12.873651338751134,2.3825065660975078,0.007557873279031041,0.06342434633792352,-0.08385768417901027,0.9071525074187599,-4.297075451113798,0.6727233044940488,-25.71491327883471,36.46303797967626,2.8600425976495187,1006.2442569883972
418,3.361735559015614,-13.090710499273253,2.5509903231802484,0.011252350764247769,0.11760056200905636,0.15474123815988325,1.1845450343493344,-4.524038875386015,0.7027936989416095,-25.05035074606713,36.85397537548729,2.653820971830736,1006.2489001663452
419,3.299354018923107,-13.387137107073432,2.5573802413178246,-0.0012720145123716418,0.025646387951081484,-0.18336743098574518,1.1729641806933653,-4.7940389119815245,0.7087983033192601,-24.886109992202396,36.996125624122094,2.645003088864867,1006.2532577411034
420,2.7228518819704277,-12.888099017560569,2.4825603651439616,-0.004622701295099259,0.09989318892029496,0.004691287036615782,0.378964977858827,-4.2765007276627856,0.6824613536756686,-25.725276456418033,36.64646114425895,2.7387646308247473,1006.2564380899721
421,3.4806367916701864,-12.623217592352834,2.498903552510169,-0.029610516464591667,0.08140607764072941,0.06048992913775279,1.4662990003841192,-3.9720837465906085,0.6759263487663746,-24.32090288248362,37.44141637768927,2.5549201510244934,1006.2595010967958
422,2.9160600126407257,-12.893265637171218,2.492816610179459,0.007102127010683468,0.02225953863134484,-0.11585787905167354,0.68899096676436,-4.357270108778461,0.7514967888204596,-25.26797811905841,36.84745244525594,2.9044255041738105,1006.261736613299
423,2.8283012822701314,-13.130667995052898,2.666113631484494,0.005931630059254218,0.09860693979360138,0.09233659732926229,0.5853160154211593,-4.455978870325934,0.7981283281283547,-25.25673802509915,37.05875139220304,3.037077209280642,1006.2607919814958
424,3.3458846989623865,-13.02221687334861,2.5673117445804556,0.0008582982857579455,0.058347272325943784,-0.09080540277666564,1.5133690936850916,-4.288867446551035,0.7020124291274954,-23.456185951540462,37.9716531125634,3.0602386359593026,1006.2590924337659
425,2.742049225130745,-12.65911564190131,2.317901995084156,0.011627483604162115,0.09472703019142366,-0.09488949544686419,0.6828279218017049,-4.021447367242387,0.44920368008389044,-24.450608767653556,37.35866782532737,3.0899709098348147,1006.2547192979797
426,3.0715973831549723,-12.87993857957178,2.615449224126409,0.009199066150322607,0.09311386130577105,0.1445508007068591,1.134216502661098,-4.244324357711938,0.6849626361585555,-24.00067941047625,37.64357819323397,2.714013627358522,1006.2464159663067
427,3.0611438675434632,-13.153095913284941,2.5911076871913234,-0.017120908799642648,0.023660724084634974,-0.1866308713586513,1.109445484937669,-4.474381594572131,0.6402061301059152,-24.016499790634736,37.676271808871036,2.703617143219532,1006.2361305881108
428,2.4802415295287292,-12.740884286286757,2.4493179538682144,-0.01688653942972369,0.11387775342572741,-0.024102667382620402,0.2643921349692079,-3.9144613046462124,0.47445187858761795,-24.903956643448677,37.219675787236675,2.6674622265066543,1006.2264388452843
429,3.0151928319371173,-12.433730870126574,2.316890371462835,-0.025628280860219253,0.0978993175784757,0.09402198606672986,1.2589109629492534,-3.7808673312683756,0.33569424833765105,-23.420070356261537,38.000157098128504,2.118327000857244,1006.2193035212138
430,2.6827763647284573,-12.87017594209247,2.4394096029554104,-0.007015356110516485,0.005433786515724792,-0.12252874932670692,0.7364401443976837,-4.256917827915092,0.6435208238376369,-24.299521562584477,37.3489222274398,2.6589218060738724,1006.2140958492646
431,2.7391161192647555,-13.082171996084302,2.485502796421458,-0.013082281222088264,0.0829739032826977,0.10470166453012557,0.6191221960358526,-4.45688794000618,0.6871997149384644,-24.82785919070665,37.18908635467456,2.908460470965718,1006.2115318373799
432,3.4142012194332665,-12.94972574766897,2.493554423311047,-0.05245793099550159,0.05277732125963086,-0.06839533215080774,1.5937473263824837,-4.297527419099744,0.6168271312086544,-23.36417774073763,37.90038902248942,2.633265437537628,1006.2104231602192
433,2.971640632150369,-12.711173598050266,2.4451895694403447,-0.016383802330194375,0.03846546655835109,-0.09109503996614735,0.8094806120107826,-4.135012163007501,0.585848046913179,-24.701080156861444,37.174499179467915,2.942612917421889,1006.2103766500666
434,3.1028147388850695,-12.94684445544445,2.530137960842376,-0.024811388420167724,0.12810465215643685,0.17031562160353156,0.7902092622454403,-4.414846122776923,0.5822223476920665,-24.550773575321877,37.41735381744409,2.611150847232177,1006.2133519749646
435,3.3930958060583563,-13.160321737086038,2.5457719129105825,-0.0439823292954865,0.049845906892659456,-0.17772029348365379,1.4219200220015964,-4.49234650770753,0.5977937684445354,-24.04953446055882,37.71242420732982,2.4461252807912173,1006.2183266382134
436,2.6382284957176925,-12.562652381914122,2.363523714129709,-0.0314571902397147,0.07902049907677988,-0.061516977799082884,0.4307211291307469,-3.9526951307363896,0.5294746520223508,-25.195754460362753,37.04730744263169,2.8134742197806033,1006.2254404893233
437,3.367824318964014,-12.47980443151083,2.2747289878921593,-0.012956718338391768,0.047136851413748106,0.1211892975108666,1.4757408523330726,-3.826356661617099,0.4927115866670302,-23.709085934023122,37.75887596632343,3.174202402083922,1006.2348990664196
438,2.997126953461519,-12.896676224356025,2.35464458409564,0.011511606030941982,-0.025532104267542523,-0.11979448400724213,0.9129011275934213,-4.262040114235837,0.7182380033678392,-24.1025677750038,37.50381889899781,4.141100831106414,1006.2458217342781
439,2.820909435887747,-12.937992556444762,2.299433000927475,0.0033426159484474336,0.04909186183807777,0.07972665056049072,0.5907344134705887,-4.264888416273739,0.6198983329483501,-24.094197572116446,37.59959126559127,4.854098196788547,1006.2557927315323
440,3.5986367446289833,-12.787196355291634,2.285006214181021,-0.013455334561769524,-0.007692673613989419,0.016640865592605733,1.6998610999367014,-3.974546718375276,0.6599960619021807,-21.758412514518373,38.47130907666314,5.738108749735473,1006.264492104239
441,3.017750211633468,-12.69473862713523,2.2509227984825517,0.03488842708581898,-0.0596511027992068,-0.09894626907122385,0.860213061568929,-4.071431168141874,0.6149826202312467,-21.932998446433444,38.39325595384716,6.590608264318461,1006.2720780625076
442,2.9760616609933996,-13.054345310922656,2.357879288644261,0.016663079098463686,0.06124120056410435,0.14919098313709156,0.7978156714434269,-4.4130400446014715,0.7640757257051393,-21.046083146413608,38.8914258791954,7.039418696600932,1006.2786039390747
443,3.452122869501515,-13.024246052592963,2.3008257122045137,-0.0002490352702482074,0.022100441725632025,-0.11632244878226744,1.5327709956690656,-4.346278444690468,0.6104333886189929,-19.024488617209684,39.60883470936936,7.251849284396049,1006.2845211870427
444,3.0424072449786403,-12.693761735509783,2.173398311588669,0.01873785965178523,0.041687140471433126,-0.10691835775608782,0.9112270505587606,-4.082685728957034,0.4211953073129593,-19.33986641320548,39.572241801719784,7.339930635886919,1006.2898291657629
445,3.197833692732126,-12.61623722041525,2.419889307708902,0.00038222371601820404,0.08569202723455205,0.1509770936437974,1.2342032952918367,-4.017136932843038,0.45348194087335547,-18.446340145725635,40.05747766665322,6.511596823626557,1006.2927962466559
446,3.087927492899068,-13.08304175456202,2.4448103209644314,-0.027781778788605282,0.02522952587020061,-0.18498441156435014,1.197805480158933,-4.5772478907750225,0.48308411950688196,-19.2351973479222,39.72575122237452,6.273350625098398,1006.2949617522147
447,2.4526934753171936,-12.614750889633603,2.165509998256552,-0.009239143525791929,0.14324712944138795,-0.06805233311471406,0.24098124799959575,-4.055173478601401,0.14686660651578765,-20.720816854362553,39.19400463305696,5.958385456352647,1006.2946046726433
448,3.0695036734711905,-12.338250045292643,2.021761308907131,-0.006254187849450789,0.09968802245999296,0.0869660765619259,1.1964241958177422,-3.6820314314523026,-0.05828124804435961,-20.117994846631362,39.718351525286366,5.0726431394087825,1006.2930043556817
449,2.6355988161234123,-12.533480230905184,2.086393188490994,0.0007757173880909764,0.08315040230539177,-0.10806835630618095,0.5979743039326649,-3.8852473786277453,0.014885718420835067,-21.575868463863248,39.16102363989031,4.442615072929522,1006.2904966696335
450,2.614483126821806,-12.597652947573568,2.202410719141519,-0.022994448308385748,0.11720705031877765,0.06576891102713459,0.492091090743047,-3.906518991665421,0.18668265086936553,-22.778428748221337,38.746834440001386,3.894838225883185,1006.2878214019179
451,3.176218965482275,-12.28953838077844,2.0677666889081037,-0.04889699843680616,0.07924244235750211,-0.04123092449865065,1.3586789919665672,-3.569152135139329,0.07114224289451024,-22.035549801613012,39.17007876576239,3.395314468257591,1006.285868874394
452,2.839473065679725,-12.096434448186246,2.1529053434827237,-0.00413810753402391,0.051111398245686654,-0.10006434571146453,0.6100826583134324,-3.449961195783926,0.07249377657025494,-23.460403221364253,38.41585850561508,3.3284058580309055,1006.2845675658547
453,2.634464543129524,-12.602157160973231,2.1162541850983363,-0.005226882553953474,0.10485270622986669,0.13075705187803238,0.5923805492578765,-3.8633469841647208,0.29725283720713014,-23.92736680005171,38.271194986203234,3.1170027426026934,1006.2836178139008
454,3.1802160681183818,-12.508474991668754,2.1955573551772583,-0.06187799920755228,0.08138720478282183,-0.11775741744688589,1.3110388012805592,-3.7617918206633516,0.36307028439371186,-23.26675810319384,38.67171305226526,3.5914534112291325,1006.2808222876962
455,2.88060550044228,-11.973409847571821,2.1700131626377996,-0.029643718215254,0.0672716726906736,-0.1072114578865956,0.6458681582682637,-3.301634023576321,0.30500446608821663,-24.45429638621216,38.21808469207242,5.990857535650711,1006.2782254684648
456,2.7810983765829067,-12.204185641480258,2.259889663987334,-0.05079135716480393,0.07532624277517216,0.14144115893393744,0.5250431300487584,-3.493126619094203,0.35770771057123285,-24.14491773004921,37.72155876130951,5.752224717299681,1006.2736918505148
457,3.1769084504857443,-12.118202341712694,2.300526311008896,-0.08463019159182977,0.057886122182475484,-0.08027346915153441,1.1702188099157473,-3.3286931981126675,0.3479466603757597,-22.89869735677993,37.70785978128885,4.251058380200753,1006.2682187962029
458,3.0117819997380537,-11.739466302343772,2.134405749517921,-0.05524838336968475,0.06340918845729018,-0.06420655246058264,0.7256076020928169,-2.773036272296242,0.3172236143634742,-23.790857801417992,36.871311131006074,3.4693992087977596,1006.2642243215112
459,2.4699050161741187,-11.887607955216206,2.3622194152374965,-0.03641322258151973,0.051784501275438585,0.1657731176787311,0.5859867589040416,-3.06503550753619,0.37908288417681635,-22.94045238781187,37.1320257828322,2.440607094758541,1006.2617831031224
460,2.9134511645438255,-11.982749486994663,2.413047706293637,-0.05383728517249021,0.03681945083326277,-0.09444849544814654,1.2514864197553845,-3.0811148547736336,0.45812057316382016,-21.7370432526453,37.96693560086315,-0.32076726372526965,1006.262268545976
461,2.705043069647033,-11.7724334573967,2.156799080351206,-0.021160695892980003,0.03596734455799199,-0.09542451409718819,0.8213886460103239,-2.881609676852234,0.1984639239057202,-24.289374704159833,37.7806406759242,-1.876969427017408,1006.2639833501102
462,2.9729592802070375,-11.80281732226084,2.2741232595783774,0.009064981945968956,0.0035731236133027533,0.13668098013536925,1.1737024185680291,-2.924558394630471,0.41941759247900096,-23.558039220875667,38.249806134932626,-0.35875512943805243,1006.2666983254551
463,2.7873967519755185,-12.257428429214972,2.407901084858515,-0.018150120608652356,-0.013412452240468144,-0.12729283018668994,0.8446556553878436,-3.4739523508801415,0.5267773971283428,-23.60669828832117,38.100116258182766,0.865852459650829,1006.2686798333455
464,2.6113373085458607,-12.128758575974706,2.3374454219428946,-0.054074585303951914,0.05134238443790789,0.007236955418623264,0.366340645034488,-3.2753099961164645,0.4395398678933381,-24.39676438007922,37.54025662058072,1.9589638048848312,1006.2697549650134
465,3.204787269308659,-11.670612006668845,2.150517185178883,-0.027424852916491983,0.006687679965617269,0.09361251587585162,1.2349788784283597,-2.9264509924468864,0.34916506408392883,-22.6702114085345,38.21766409688394,3.0288782384182293,1006.2701685836256
466,2.7790654683272114,-11.96620599625251,2.147363938949172,-0.034416868385756264,-0.020502081258953878,-0.07581584393801141,0.6245950716052465,-3.2481614479645295,0.359471887182686,-22.84426245271498,38.11975751586198,4.019924452786193,1006.26917181969
467,2.751179696710604,-12.143745243724974,2.345994308004922,-0.028044086726537153,0.04336657447181476,0.09495432276155699,0.4953647710100687,-3.384707705967823,0.519749069999178,-22.71482936085453,38.376103184827016,4.440818609670978,1006.268382742107
468,3.2631029434729975,-11.949360817219528,2.168696705064114,-0.07705381400577851,0.03016258602408257,-0.034187790401444734,1.2540174583392008,-3.1570804659990395,0.240593244572832,-21.196935396550384,39.08471824432048,4.601377915766079,1006.2672503169382
469,2.9473721127751564,-11.682291170035995,2.1924692304627693,-0.0394056246145107,0.02198522019006579,-0.07506972756537657,0.6909361979987805,-2.965659332646631,0.3143765342845482,-22.11109653063585,38.722764756860144,5.056445274581074,1006.2651251825528
470,2.8317346929169736,-12.104803899666567,2.2462269961928314,-0.035227796902537474,0.0561402214897849,0.16428754561422892,0.6233832662343769,-3.4203272559530298,0.3667290070157088,-21.576384796754468,39.067241433110276,5.356015833778174,1006.2631208442991
471,3.156303335065268,-12.206453690872918,2.18825484290422,-0.05472864437833054,0.05262902799213481,-0.09159685861343153,1.2500026014565386,-3.4191200396098447,0.24339404317997598,-20.13515569788245,39.67375501248207,5.417437319007947,1006.2610601347785
472,2.8620780630724454,-11.857443565709518,2.0421716869863262,-0.03142070064410302,0.046161529819621544,-0.08634249017539056,0.7007449796608919,-3.0965970451158804,0.04979544506068398,-21.11229406153411,39.37817981822828,5.556961228673184,1006.2587934877497
473,3.0557469621847324,-12.156415297394041,2.29139975553593,-0.01571045359087558,0.06803451891063106,0.1598046730102266,0.9503301792856031,-3.416087849983478,0.405834075717602,-20.94399246372704,39.5027671414127,5.69102158619567,1006.256768265017
474,3.0721414954717523,-12.433771004457514,2.3541889054175114,-0.02767831081378396,-0.008991097653247987,-0.13827616963297507,1.0488471075982504,-3.6935413299863082,0.5331314695434806,-20.196977598186464,39.823766164873454,6.140979294192175,1006.25432138861
475,2.5197929699657875,-11.97585854564586,2.2528394417987294,-0.036024151750774225,0.023508844912936505,-0.01438477366812796,0.3357778187955195,-3.2361727100601416,0.4145549987954272,-20.304562266552647,39.73922400104183,6.791959060713939,1006.251752368206
476,3.136437359160348,-11.817332170666818,2.1156594365535897,-0.015605786425198508,-0.051832058350571364,0.14810868875090205,1.1848250676807237,-3.0675429664777054,0.3965510217785932,-18.089862600676128,40.31054009180074,7.717259496801474,1006.2498773846224
477,2.9863734629320517,-12.296128067074434,2.2949380814789406,0.013661209222726726,-0.16995468931575097,-0.08296755220855151,0.9172071071721395,-3.4263395820997706,0.8269624310146139,-15.989832177017245,40.720796820958604,9.257791911288122,1006.2488388002358
478,2.7931463115049473,-12.19890327292476,2.2734298994372604,0.012875762278036546,-0.16428823852260196,0.06781943414576583,0.5835186587112358,-3.334982539995332,0.8908144907632005,-12.809405121911235,41.68580943376329,9.04734250319383,1006.250100753869
