Time (s),Accelerometer_X (m/s^2)_kalman,Accelerometer_Y (m/s^2)_kalman,Accelerometer_Z (m/s^2)_kalman,Gyroscope_X (rad/s)_kalman,Gyroscope_Y (rad/s)_kalman,Gyroscope_Z (rad/s)_kalman,Linear Accelerometer_X (m/s^2)_kalman,Linear Accelerometer_Y (m/s^2)_kalman,Linear Accelerometer_Z (m/s^2)_kalman,Magnetometer_X (µT)_kalman,Magnetometer_Y (µT)_kalman,Magnetometer_Z (µT)_kalman,Barometer_X (hPa)_kalman
11,6.767289593714286,-5.3440095240000005,4.643854279755102,0.0040703482995016,0.0110838447277105,-1.6727006467999948e-05,0.021930321443466,0.093048473448608,0.03694012402598,-6.55774230956,16.9554468352,37.03905777,1018.577271
12,6.773371813067896,-5.452433200825361,4.703622440635718,0.0035814051030184143,0.0003506139395403028,-0.005141279788746702,0.052858878252560554,-0.041009545854390095,0.03348587905439408,-7.555562467315786,14.236056941603758,34.964181555708805,1018.5668461444114
13,6.752877062618483,-5.346504527446046,4.732687421965289,0.002063621719695469,0.0032357315975258556,-0.0002718962549052668,0.03419170453436825,0.0452335043322222,0.04073473775946165,-6.881386213480926,13.70995981885542,35.40893870841133,1018.5556101880176
14,6.740007513140094,-5.366520801986838,4.721505766922207,9.415945073146985e-05,0.0007161538990153732,-0.0005988920176066893,0.021960807706544894,0.02399863702129405,0.025659007437168008,-6.368034563658264,11.230393019973121,35.83586212021843,1018.5429448404294
15,6.747044381699479,-5.371079952676793,4.7219671007922805,0.001403157119571043,0.0019015847375823815,-0.0013978625671172472,0.025260558029501876,0.02182393184611326,0.027952055578131536,-5.963278887992908,9.317634252146243,35.892145601692604,1018.529593300955
16,6.7600449872628365,-5.365389817189047,4.740234417479735,0.0017331287380818743,0.0009046074529414827,-0.0013259069656593949,0.03449533202673512,0.011807567930809474,0.03338765997140618,-6.143404939835539,7.551608739600877,35.495919101375144,1018.5162391610544
17,6.741165554491681,-5.3368486408851,4.746991523771913,0.0013549241685471736,0.0012574780103065631,-0.0006462534111245763,0.021932717268800528,0.03240362091434529,0.028287958192110392,-6.19415735028646,6.193983882194726,35.25936087058743,1018.5040168598845
18,6.772728556379924,-5.354696268712461,4.780959702092878,-0.0034001147385576244,-0.006022345642285793,0.0008077410299102447,0.05039379116107326,0.007584749598332812,0.052365622276548784,-6.241576571499617,6.250324401968177,35.239931618139394,1018.4950485806548
19,6.7280801956585305,-5.349733294790401,4.746089176759109,0.00226099532605419,0.00489294039159814,0.0001154133376459743,0.015020610522245396,0.017614562471106505,0.02335091115483464,-7.202025516068213,6.671812823618793,33.48629248298383,1018.4886592701807
20,6.736688136188239,-5.3410162467418,4.782076564438549,0.0016450227810965515,0.003221885389331925,-0.00028283878366669446,0.026619593091386097,0.013484768404167466,0.035059080388204496,-9.616710369841288,5.021176149605214,32.29926250084418,1018.4840554892069
21,6.715629860758944,-5.326461539791696,4.788074303160718,0.0015223982911876945,0.0026443850631322754,-0.0009092571562076574,0.011131737608149223,0.017794874410763394,0.020234194758293106,-11.21042925445368,4.556789519964194,31.06577876352661,1018.4793106363724
22,6.786356656170695,-5.38164581931809,4.826719489302849,0.000932863289731858,0.0018795105360837434,-0.0001976238725268631,0.0751826384800251,-0.037102079032547294,0.06567481287914294,-12.333962433267471,4.518720902710991,30.218543947610804,1018.4755502764594
23,6.7112680876036865,-5.307983801251833,4.798997250122826,0.0030803401365530987,0.004648402020298469,-0.0013108320326594184,0.0023886290035069757,0.03819021444647108,0.022485975367798172,-14.473027205002891,7.947210205060797,27.803534935400247,1018.472501527169
24,6.695897216937102,-5.304327091442349,4.841812291842609,0.0014264459362219482,0.003199181859404723,-0.0008315697729433778,0.006615253388259875,0.024030424706605436,0.02211968416008971,-15.855613888568683,6.180653225036316,27.225827796274356,1018.4698869932022
25,6.717953132002695,-5.322499721783614,4.880233650184266,-0.0014555160030522425,-0.0013187593252388875,0.000258129476759566,0.03724497244458301,-0.004578641800894723,0.04095321301699947,-16.307384791211707,4.618703209190025,26.718183178147893,1018.4664950819481
26,6.663534002827459,-5.278653741599547,4.85327632440438,-0.0021008100252428406,-0.00223436181099179,0.0008013348885827233,-0.006234316539145086,0.03841512343986474,0.011108266529816387,-17.46892284276634,5.412467665999165,25.363674132857525,1018.4640202394479
27,6.688628314520799,-5.302055670640113,4.863767390000215,-0.0006902176837798536,0.0002967702562355098,0.00013505883927502423,0.01122335177750287,0.015295412783340036,0.019476263196561865,-17.91456359273234,3.181820771790271,25.448859562331812,1018.4623998876549
28,6.680372026064592,-5.326530538135952,4.854657601530842,-0.0009795776079924204,0.0007561245733196784,-0.00033243228926414065,0.005954306654806307,-0.008445779227745278,0.011291467360443652,-17.712748379305456,3.47941301661516,26.155965371710824,1018.4619387370499
29,6.680930662336612,-5.361250001071126,4.835876799476863,-0.0030085879097907055,-0.00021871633926543843,0.0004166898249275753,0.007186861387077851,-0.029718753225491612,0.006169600145472962,-16.229093379866033,4.21473162895001,27.175476676421976,1018.4634160637249
30,6.670011950898509,-5.376046496695003,4.825947969443398,-0.0012678952182248978,0.0018038823419758076,-0.0013206332155833492,0.0028618437951863267,-0.03520923708987799,0.000807022556305056,-15.30099994184206,4.093719524278329,27.775845054728098,1018.4672974388437
31,6.662898800187067,-5.3900167700113215,4.82370637754058,-0.0014390387074451432,0.002146652916531512,-0.001616747713421201,0.003308071717575875,-0.03626286557260023,0.0006469205772905345,-14.873213422462674,3.0000094241574584,27.67354709600886,1018.4712637853825
32,6.66913312490806,-5.3816098361266045,4.832536930365286,-0.0014574286218698885,0.0008164228936034133,-0.0018341586652184634,0.013577085181019105,-0.02671578288053745,0.008241626413790133,-14.678850693028975,1.875899010668372,27.07541134000819,1018.4743236456007
33,6.663748032982433,-5.380940711496296,4.828213620362855,-0.0012275974579509488,0.0014972490770801437,-0.0014798934349230615,0.01404205896667396,-0.015735319773397684,0.00846049236462843,-14.92846597963635,-0.3050067509928849,26.949862834594807,1018.4763917918199
34,6.6714743598680215,-5.295431814139205,4.8775279766396,-8.237304980514477e-05,0.0015731320318532716,-0.0013100902791821603,0.018659028504576475,0.03796823767539019,0.025709943153529903,-15.2678984981852,-1.6551608949427643,26.231265652418227,1018.4767057699572
35,6.66222324554689,-5.300315616440366,4.901623677609846,0.0007997287772949423,0.002310972603399815,-0.0010423268055028162,0.02236512819340138,0.02932343337479251,0.029348829001004377,-14.464051356731275,1.5256336314145615,26.751748146576098,1018.4755128215081
36,6.668576157126224,-5.294584637938277,4.914232490455784,-0.0005750193486670938,0.0011848684357466826,0.0005229530589251988,0.030386590559837737,0.03454658379863804,0.03804716321979544,-13.322669045341229,3.170803941370261,28.083473554427083,1018.4732200531755
37,6.666173107629985,-5.297319474442155,4.931343269850269,0.0006859481316571831,0.0016943376491222505,-0.0008749929715883681,0.035019365503033494,0.027936499569918463,0.04362461206598689,-13.347504868822586,1.586800319152729,27.690643188175418,1018.4711962982585
38,6.663657379973969,-5.291915078055057,4.951425972382431,0.0026444907828128707,0.005754912199674334,-0.001886713889979794,0.037102272834135974,0.01827329396829553,0.04187241471269131,-14.33049707578345,0.052037423892824286,26.561215078213333,1018.4686164957649
39,6.657833973008077,-5.258273679642684,5.0027066905952795,0.0008155884266981637,0.002735597546658598,-0.002102520433893062,0.043120836172883134,0.02440501720398166,0.05121602828619383,-14.618311374895343,-1.5646994630419324,25.811502566446876,1018.4656308653794
40,6.635817523288772,-5.242653599946718,5.016962059517416,0.0003517264605395516,0.0032669115339206294,-0.0004481761465906485,0.029325525830212022,0.028204955986266017,0.038136951612235535,-15.001491818724167,-0.608064045305763,25.422719619229643,1018.4620915851189
41,6.603667500710389,-5.254052437323512,5.029091195838873,0.00027829834111216777,0.005436388827938862,0.0003202472121815983,0.013390307468035403,0.011519666268313983,0.018270991856436016,-15.408852865169807,0.03192651282391257,24.303065711874183,1018.4571794467291
42,6.581540740017833,-5.217071661358827,5.083047181861547,0.0021055507285342315,0.006245528764511871,4.9121662118848525e-05,0.015784329858334546,0.028943145563057514,0.024223871394532193,-16.79161159356927,-1.0238448080152387,23.56230758610752,1018.451698126617
43,6.581167046993316,-5.205077995992826,5.147893700255071,0.0017805608591720916,0.0028940618286499883,-0.0006799477656671666,0.0372953050616498,0.025903573300741348,0.04830614119933792,-15.83114873031934,0.8551838660141049,24.502720808843048,1018.4468525705744
44,6.558087331699471,-5.217666758778874,5.128300086140392,-0.00022036442716680564,-0.0001229064217497665,0.00100675755925627,0.022572179980716055,0.021981093745778897,0.025019104119212033,-8.950266729078917,9.21663419975639,37.68883777384607,1018.443130474291
45,6.57853273308411,-5.178593111462774,5.1658043664402875,0.00044654592691746326,-0.003952996081166866,-7.348350418922103e-05,0.038896353287470556,0.04069498311062199,0.04513877338437133,0.5381069013703303,13.849249730848111,47.13058895890776,1018.4392803499785
46,6.601953347492281,-5.1547198693762875,5.153265283858164,0.0012486244826098174,-0.0032146559311300392,0.00016757697888790081,0.04210877308581305,0.05919830556732572,0.05501666313225881,7.059591812439394,16.671219483428136,53.08405417563563,1018.4362023657059
47,6.6271677652125796,-5.148914353706344,5.127435720629515,9.881709287733057e-05,-0.004211891394352572,0.0013826270041503938,0.04538244730115319,0.07192322695074667,0.06120473151670312,11.930646619874677,18.670926988813864,57.41120547403887,1018.4335023257258
48,6.640951370193442,-5.146073200071492,5.127166050074847,0.0002065376308463133,-0.0025566814605727153,0.0015647627438017278,0.04912156106918398,0.06784136679539172,0.06850070953353336,14.930913405011298,19.373171697313,60.26806181503498,1018.4299242888583
49,6.654024788117854,-5.177096773345802,5.102682984024107,0.0010648765946722906,-0.002449593913004851,-0.0004454910300923413,0.04999352210895661,0.033215009267008794,0.05832790639714283,17.104642920661593,20.919180327078514,61.22586272117066,1018.424942530274
50,6.62677139633689,-5.1795582884689955,5.039632915844557,-0.0008201212157561094,-0.003302045658571373,0.0015096782313155867,0.011674806437878,0.043368507089037715,0.022455428687179854,19.071409005416935,24.95755685905498,63.45890951578008,1018.419966920063
51,6.623988564235788,-5.222043072499267,5.0414621415076075,0.00011616953010101403,0.0009265568100806387,0.001978228873046045,0.014977743487733841,0.0041603384016636324,0.019216135579852307,19.598973183243793,27.863546863449358,64.25053237275782,1018.4144392754072
52,6.6399752536947725,-5.223163412806357,5.05520021597514,0.0003715457001781882,-0.00030064650767457784,0.00030937061199797855,0.028043539964041825,0.0013185593455763292,0.03179099143654027,20.082022694557114,27.73631386647363,60.572426349543406,1018.4082818006232
53,6.623612108332717,-5.256279176503735,5.012845790106231,-0.00176206715018003,-0.0019742360785310986,0.0015899701776273135,0.010666411809267442,-0.01743939505327199,0.00655071360263694,18.527516045539855,41.219412889546206,56.81186291464507,1018.4029840911712
54,6.626039282601086,-5.257363310555138,5.016547322241689,8.152336666160105e-05,-0.00026137981526906423,0.00020423135504802378,0.013855896351722337,-0.01592233427784561,0.010999105009949037,15.726347668033986,50.898021383633264,57.62430665534609,1018.3991175908365
55,6.627017320873257,-5.249421279722654,5.025311527989945,-0.00044137199761524494,7.295758878349712e-05,0.0005261660063486449,0.017394525379856158,-0.013614101510082056,0.01569110218627568,13.809065226093306,51.174461734666956,57.47425007840821,1018.3962956495853
56,6.62101092685359,-5.266457696714971,5.019752543293748,-0.00010759608981794481,-0.0011004522007879054,-0.00031743949530779736,0.01212370469016202,-0.023832280179113104,0.00957957311101963,12.891245282978229,50.03119093532689,57.31130985337207,1018.394400868582
57,6.619651449262736,-5.264751221359779,5.0177480866383135,0.0002884793610371768,0.0012553046975410259,6.7935274416934576e-06,0.01531307468202887,-0.013611351349434104,0.013308703019442045,11.641283817405014,37.57140534130683,55.14904840183322,1018.3932654375269
58,6.611216589189775,-5.258577394054751,5.033371542354291,0.0011255730519965795,0.0014025233204909007,-0.0005631122836475452,0.013809479965298662,-0.013002479186808753,0.012569280338838201,13.032066095861508,27.1622060501885,51.232583393415354,1018.3926015455137
59,6.604098811515166,-5.240815449636117,5.047467484368041,0.000741698009151274,0.001903120271133992,-6.812501582257116e-05,0.012464680937085762,-0.00020273310574974758,0.015134726564181137,11.772941975844713,35.58329707827208,48.12133147652171,1018.3921170080519
60,6.605526291647977,-5.251762976470528,5.041776928966705,-0.0018340514951748165,-0.0003588593337750007,0.0013213703858168245,0.014893873057835346,-0.004599020305677852,0.01345390230403251,7.920664340285072,39.68978823152614,47.2668523524975,1018.3899908764892
61,6.579206064445693,-5.267174388182634,5.031051511277248,0.00013781530820040802,0.0016116071898151546,-7.514230508960575e-05,-0.002118421952800365,-0.016366275959265902,-0.003094548059668167,5.236686274984692,42.72284097813695,46.578499146758396,1018.387779411106
62,6.577506280259984,-5.264715571069002,5.048720650769985,0.003717536175497046,0.001366004541512057,-0.003556627429808648,2.217096517235454e-05,-0.025769622201777406,-0.0012684900678567995,2.769008212563742,44.75467079161885,46.07068713008197,1018.3855264673923
63,6.59223798726668,-5.258107350986642,5.048776047438591,-0.001957621833859239,-0.0004955444413540177,0.001819190966563204,0.006996841937491609,-0.014750140812087177,0.009189923818732657,1.251040368843684,46.48535319097372,46.06991648752878,1018.3830371217872
64,6.627796130675324,-5.239608607388524,5.118720726349231,0.00021780777394370338,0.003162383984855765,0.0006681229141565301,0.047511964119824085,-0.0009355224206768868,0.07026137187565702,-1.6885070530909496,44.245709781977375,40.53956606635428,1018.3796333907723
65,6.519572724462641,-5.253335220364857,5.11243614029525,0.0030031889226063073,0.00586086118586191,-0.0004282487737258336,-0.03622414026837051,-0.01222943881179769,0.03329588679399494,-9.163757391643745,35.33741601842115,19.270291331055418,1018.3756649606065
66,6.490165171815547,-5.234988543322353,5.186472343421237,-0.0012450129780500652,0.001733707215345901,0.0017409854873757815,-0.036716625335187714,-0.00776000888379927,0.06135215299678251,-12.214893965000751,34.04944742095907,5.899008168182581,1018.370810804434
67,6.4727372893198405,-5.247496495703738,5.212126879147816,0.0016529083729712648,0.0017939892652798289,-0.0015981813478737016,-0.03874784761199757,-0.01856063740472335,0.06294893576131629,-15.180471366091565,34.374075436564986,-1.7697330141012992,1018.3668144364251
68,6.444434300958519,-5.2256717575089535,5.229462358943525,0.0005424921817950457,0.003271089365265222,0.0007404067320993188,-0.04768461627708037,-0.00519002539214811,0.0497976337551576,-16.351925557170247,33.3926932364941,-6.345418427958936,1018.3638977120588
69,6.412436386213381,-5.2293389050633365,5.240899390374773,0.00023302263897125172,0.0032238836487295465,0.0001292572037667303,-0.05439366048274649,-0.011581683417046008,0.02667371985356977,-17.123066449064712,32.70913901485875,-9.941003853243188,1018.3650256920324
70,6.372630566716699,-5.286542944154294,5.2259859296346045,-0.0023437943068907274,0.0009295058194517401,0.00048542664066015737,-0.06526129145309015,-0.04941710111737589,-0.005089524540340416,-17.580986864114525,32.04371979344288,-12.553463441658822,1018.3712490937285
71,6.368409098791661,-5.323097310631501,5.242336518154886,-0.00215586607348476,0.003823455075382197,0.0007112163186706566,-0.043722913922336674,-0.06576903134262767,0.0008272410197672272,-18.201410213022644,31.461417113678504,-14.726618790387803,1018.3788724714718
72,6.3440513334915,-5.346726353085293,5.236768556987714,-0.0007071690206623773,0.004484495259816248,-0.0015381934796245681,-0.04679053597383277,-0.0752057517676633,-0.01698878656633651,-18.53291915980532,31.13283816335766,-16.342684373358487,1018.387517613037
73,6.3216072702373864,-5.362033201107164,5.2617750374853,-0.0022074206829843937,0.0035484064829217547,-0.0011028725300819098,-0.041797429469835536,-0.08195402245435343,-0.014368312823002417,-19.00140130241921,30.612882414344035,-18.242159215855427,1018.400237482501
74,6.304337456325889,-5.386979338785868,5.26153663357226,-0.0027451996579772233,0.0031715438887785323,-0.0010794856986919429,-0.043419884130368666,-0.08956368602839988,-0.01909350819396724,-20.133836585184195,29.270725571798113,-22.259062750166656,1018.4153952768861
75,6.31132796374525,-5.3562099579317755,5.301440000375398,0.0001247408122437405,0.0042112936388678445,-0.002362839681243326,-0.022705113372706053,-0.05944755048488071,0.005364967427628306,-20.76848761733557,28.226425602427735,-25.081925995767598,1018.4334246171953
76,6.306245699360133,-5.320667755566306,5.334162325826092,0.00017286668237989606,0.003280693738597296,-0.0018551842020276914,-0.01504550452070123,-0.031110301566423085,0.01428799710192081,-21.349033000107536,27.54278566094669,-27.37992420896037,1018.4560232877354
77,6.3092420912304155,-5.303273140784417,5.360674686301604,-0.0021606809717081513,-0.0003715743610041922,-0.00019104373168763377,-0.00429740495437078,-0.018666361297584446,0.026619414430485728,-21.769054072192528,27.212626093296244,-29.061904215444386,1018.4842445383626
78,6.311601260810585,-5.2690721494126125,5.371128722380787,0.0010862231720549951,0.003196700349096267,-0.0013632239594434893,0.0014977609867118493,0.016939678347618014,0.038040632110182424,-22.21567726391158,26.91654212647599,-30.255566869153018,1018.5162603354333
79,6.300102657781509,-5.26396324802825,5.390092873262997,0.0004959742599652463,0.0028494719188366766,-0.0010421636306924228,0.0013811354608915377,0.015296532670022546,0.03362056728448772,-22.454139814040147,26.40764408190415,-31.348053550005822,1018.5528180535606
80,6.288946981475679,-5.248089426530761,5.414003911861717,0.001210688607917927,0.00394246282517007,-0.0010732890016002948,0.0012340500780098822,0.01574810575294492,0.03193870123839618,-22.563397394971975,25.896975887482593,-31.964640840991393,1018.5924845353676
81,6.2853616529711065,-5.258786471264666,5.428512901654628,-0.00041013094864711885,0.0021202059779763037,0.0003393629116766705,0.005875599574698565,0.004384178315279394,0.03524038230347088,-22.34480129040287,25.714752380257895,-32.138184951506375,1018.6314519928912
82,6.301494217794739,-5.271748040871384,5.459047687888221,-0.001772696317957154,-0.0027283483798108857,-0.0011445913113506704,0.026978368388193022,-0.017650141163698334,0.05176213674796361,-22.75122967202863,25.468460429557354,-32.71839682525398,1018.667786114215
83,6.316149368411007,-5.252052816986646,5.432816620880789,-0.00017640848120148997,-0.001887479191245112,-0.0015312273148030738,0.017847666814350474,-0.005456257794600612,0.04375856012594631,-23.347064985886924,25.10049057924192,-33.3236894757858,1018.7015801940584
84,6.338599436988489,-5.228505120827255,5.4486011131479275,-0.0013681192165768455,-0.000721362476217806,-0.00035645705034111227,0.02777746290000605,0.009628364745755718,0.0652897954662866,-23.389230388427908,24.539110855712025,-33.09096824532687,1018.7312532894756
85,6.321987944680674,-5.1964605780257545,5.397921845499529,-0.0016399851338107334,0.00197650590362198,0.001599284415351149,-0.0047609496823962025,0.04165418129224442,0.035545516802924434,-20.288367434252198,26.605887480533557,-29.073209502446723,1018.758639756938
86,6.35376151347333,-5.249837626352249,5.418609833787843,0.00018572523140830818,-0.0021848558901763912,-0.002379914905269398,0.029654722953812676,-0.015062399776805527,0.0524502213802919,-16.692215898319546,24.269143351562153,-25.027318654033802,1018.7847904035995
87,6.325011778680217,-5.267221764384779,5.357139373849501,-0.0036843197319013452,-0.0035527705557445136,0.0012386570147053253,-0.007380904088575224,-0.02485214539460441,0.007693233679990696,-19.45699075694849,17.230994685450252,-28.618773853487838,1018.8065249021221
88,6.359481809588148,-5.230960886344639,5.372237372969364,0.0003435822246627288,-0.002011693936317551,-0.001583598994978474,0.01173583208485876,-0.0019392530913206196,0.02745714347292908,-21.573911739263043,12.475053858598248,-31.98613218339057,1018.8250363023581
89,6.356005261288964,-5.231842807504048,5.364599460984473,0.0016544781455668212,-0.0014207776683042407,-0.0019008244033095136,0.00466662575080269,0.0019879936980050274,0.029108263025071694,-23.030047195578888,9.166244417385885,-34.41852951145266,1018.8449567292689
90,6.418329386691196,-5.185398907293706,5.412295717957393,0.0010691258023366433,-0.001991471690416799,-0.0007862157750149821,0.05287496424160083,0.03483705129790267,0.08219366593266018,-24.253604560811393,6.5378004585679435,-36.18913104036069,1018.8657615322849
91,6.430081321242782,-5.144528392731103,5.413982442197746,0.0006056992417515987,-0.0023595402765106735,0.00037398683896578484,0.05234555740816901,0.06914481363064826,0.08550434008449889,-25.034186388407615,4.451274411715552,-37.52959552646255,1018.8856451558347
92,6.361367137126649,-5.111620613489689,5.3505876128549605,0.0021642882345817307,0.0014481528591317816,0.0016066563680300274,-0.012864282818764894,0.09686387148151887,0.01689997593007596,-25.0773629079598,3.850787171943463,-38.36632214360533,1018.9038668800695
93,6.380503660400211,-5.104987137734808,5.38579242419289,0.0010635769063723915,0.0005070100929388401,0.0030821824277801526,0.01779537268168605,0.09251493449107305,0.028361444027565484,-25.91451781490345,2.517358976204574,-39.12987146855216,1018.9198455717768
94,6.394171890724908,-5.084326676572177,5.391631531011555,0.002520865708401776,2.732731907566661e-05,0.002094622034273705,0.0350810213689763,0.10150465719955104,0.017512990331667415,-26.378358752170207,1.5386624982575268,-39.87179160706929,1018.9370724684702
95,6.356773688332208,-5.072715844897933,5.366924851664169,0.003209764197399923,0.0012841277928009411,0.0014534025882493983,0.010977127156940686,0.10797445138205178,-0.02802860147577732,-26.774558989650327,0.06603941628417931,-40.7784722405333,1018.9602809217595
96,6.329642217544671,-5.0835580056060135,5.349425825661972,0.0031937807783723807,0.002656171164958661,0.0015643744549846896,0.0005456333007710402,0.08901779752810104,-0.07233460743535117,-27.051233569490908,-0.8827502084761968,-41.46569687556085,1018.9916679617481
97,6.307705202564933,-5.094350155528548,5.33842137028736,-0.0017052027468265956,0.0005778732514587484,0.0048289638294274064,-0.0027043831736634294,0.08477416375790024,-0.10066339960037658,-25.7659399027347,-0.6834972946377678,-40.48542082059109,1019.0346098422715
98,6.315811094443217,-5.116862758802203,5.352837812281624,0.0016348239562259176,0.002298270140815859,0.0016020256300897109,0.0230566879234359,0.072880245944632,-0.09689544436543511,-24.785687769240067,3.772849887928987,-39.380833959136794,1019.0922712162761
99,6.296741280073143,-5.152894389454412,5.350253982359315,0.0009264498954886986,0.001661381688835117,0.0013294634754960268,0.0244076509393742,0.04648576494694681,-0.11395400021229762,-23.76524298957772,7.149416156173889,-38.62061054364739,1019.1630045378648
100,6.315663271924287,-5.162328647436741,5.388319829485918,0.0018665687994631956,0.003339016943442232,0.0005191225050745551,0.05082202485036793,0.02864902749631567,-0.0922084634997408,-23.17443146016428,9.570677391561176,-37.592661076473014,1019.2456284280837
101,6.3210830163111975,-5.190618723454585,5.408082830853419,0.0006719798720907595,0.000845551298506309,6.095275757320818e-05,0.0633941790620082,0.004518781135367401,-0.07506985136706133,-23.188826635345162,11.016439081385442,-37.604063601845354,1019.3350546112193
102,6.340839849902893,-5.220297781414987,5.4273529848907955,0.0008249520318240916,0.0016366377794947763,-0.00038750423412108124,0.07568417082638978,-0.023093083429479966,-0.045617351193581644,-23.27318333136709,12.085445532312358,-37.794016066130474,1019.427404915717
103,6.360377502380887,-5.245398677092306,5.457395990886354,0.0007239264612577478,9.695918404841125e-05,-0.0016151061097439703,0.08940172541904855,-0.05055177385695961,-0.012109169011078676,-23.733533693074325,13.82918642280047,-37.773562100884924,1019.5076058078706
104,6.376253453818247,-5.25237997884516,5.481324026746079,-0.0004897917506402188,-0.0004635613394709621,-0.0007371841743080065,0.09020141738822667,-0.06666525176998278,0.019144071597022874,-23.14507848859172,15.541203557824813,-36.484952974817105,1019.5789395268954
105,6.395337871557601,-5.269768797233317,5.451943635025464,-0.0018715268467296886,-0.0038462119314067057,-0.0007767836507103699,0.08825949826934956,-0.07541170867073688,0.023605492284055327,-20.555879795388336,22.26042229561539,-26.606397219592612,1019.6530353989376
106,6.431281690765621,-5.2799737078238165,5.448202454345166,-0.0011981983290718637,-0.003134504795640378,-0.0015194364929162927,0.10020570839324835,-0.08361374342194376,0.05003874699545097,-18.474605019570227,27.169631095246704,-18.49694508883931,1019.7228814781794
107,6.466940664782826,-5.283033221497495,5.434031688208367,-0.0012406958028072187,-0.004226633082623376,-0.0020577001120904615,0.1083224953487069,-0.0883451611121061,0.06710999716878732,-16.232405980580772,33.95428672460853,-6.441284884950166,1019.7839166613196
108,6.499742755105161,-5.2963669353103535,5.378952985874709,-0.004249381709946488,-0.007678937652658747,-0.0003975142188132107,0.10181387365984512,-0.08791937889566916,0.07488316916164588,-14.5961809562062,37.692166440534876,3.489993329258949,1019.8345637483244
109,6.531985567557603,-5.313463935917111,5.329843568384305,-0.0023883509684677357,-0.00602877359887084,-0.0017143735898300823,0.09359174039655713,-0.09221544215295827,0.08545565624792087,-14.587623583456454,40.86900242980711,10.07212253075124,1019.8717343393513
110,6.5623673989778455,-5.32630279450673,5.307548543219923,-0.001551336747178345,-0.004570081202178284,-0.0022857688762993383,0.09379011056798559,-0.10339389291485718,0.10343657418787401,-12.944798204639053,41.968738581636025,17.357989333548737,1019.8988630643133
111,6.58807740557775,-5.320264959228018,5.296115628763094,-0.0019449320720118682,-0.00441880180701734,-0.0017058626992889439,0.09019888263183434,-0.10305381091510035,0.12183208567503986,-11.018622564941442,42.49435546239194,24.2600510943576,1019.9113869486087
112,6.59981333730306,-5.321578831370644,5.2677061965638154,-0.0016234268495450236,-0.004092732335107066,-0.001731598195470564,0.07625763143463064,-0.10080138424363463,0.12952112370919347,-9.260515565467575,44.634173322214856,29.103873882724265,1019.909520993537
113,6.613004994422642,-5.314637523780336,5.25682034527955,-0.0013788779499364118,-0.0037601671216976693,-0.002052964139453677,0.06901450399446553,-0.10035718501445492,0.13956945259490303,-7.994036146466714,44.89210319775514,32.919921771007154,1019.8930303899541
114,6.616068020377369,-5.294300503239488,5.248182854793031,-0.0013996066189460772,-0.0026478610911817484,-0.0013124724093828187,0.05505194937868955,-0.08794318452598299,0.14266662425496324,-8.922216427186864,44.509741220308186,33.858399447561034,1019.8581163764081
115,6.602808715142641,-5.290530193410316,5.1944606754494655,-0.0011072080201463108,-0.0033502950671604843,-0.0015422895030623835,0.02688317548290787,-0.07355254056721586,0.11792075400449709,-8.545290446495589,42.96931790543878,35.23251187699198,1019.8066026180833
116,6.595977614177244,-5.2756984172062324,5.167104646442831,-0.00119205961383795,-0.0015600435356302215,-0.00016785207007166637,0.012305263586007508,-0.06044322732613357,0.09750484935062019,-10.032588548604293,41.625926513600376,34.99706428955714,1019.7423139176775
117,6.5641046706919255,-5.239095077253852,5.134901266199636,0.0012732336713614184,0.0010336509918163217,-0.001058035387837991,-0.014947124414139845,-0.02602457144389958,0.05742559484003401,-11.155166166314682,40.51813830319414,34.199011580777665,1019.666619951538
118,6.54358095283027,-5.22878821386746,5.115535582226056,-0.0016392714773538857,-0.0009954432239853617,0.0013643556371531044,-0.02494186427229942,-0.013035881377577406,0.02874986980412575,-12.498992976557357,38.32555104462599,32.75310842065044,1019.5824781915056
119,6.533526547399091,-5.191724068647864,5.120597402920407,0.0005703068571818175,0.002225556489073015,0.00047849570914190774,-0.01924537888314937,0.02242774795918965,0.012313440199858257,-15.079207180325614,35.12816667515063,30.613949596268423,1019.5084433157649
120,6.496118832885592,-5.199639475326372,5.096330547193251,0.001112877279878658,0.0028176341011755942,-7.285590195724861e-05,-0.03922090961584104,0.02187709898058641,-0.02812155327410771,-15.767112544117635,32.65569903688654,29.888628477194665,1019.4417848867419
121,6.501448041636315,-5.1947403354700725,5.103676374169722,-0.00024377053911240005,0.0016210477403487218,0.0012694559359703037,-0.020242830247900884,0.030334307514595572,-0.03319854754903534,-15.775692495031272,31.483709937540862,29.9379495224048,1019.3696791437659
122,6.498094037354301,-5.225480741914848,5.082405950077251,0.0018417409867072213,6.667857147364372e-05,-0.0019594493977234733,-0.015137334464986866,0.015521986441370332,-0.0514468402225047,-15.588895141790841,30.15037224018721,31.28277709545155,1019.2981938801719
123,6.516029181981489,-5.168796063520849,5.127565942199905,-0.0010626607977143351,0.0022844089999968804,0.002087325500141489,0.0073155410759247145,0.05663957325312622,-0.02819107531671535,-8.92375199816421,31.019033963434957,39.13113871025606,1019.2303974007064
124,6.501334784465786,-5.202439265846016,5.094294943343182,0.002010483349673673,0.002691459936544097,-0.001976358528086878,-0.0005010744124535893,0.024193876310056546,-0.06446957414523592,-2.9658405763889686,31.923314216823595,45.793140691040854,1019.1691474760975
125,6.470950990046368,-5.18145400104842,5.0624905946743,0.002537415436481575,0.004796145255632413,-0.00209005133977014,-0.03553666689245153,0.036418886028979,-0.11133176272596282,1.4394905648870129,29.429286746382314,49.49584099226175,1019.1157261178289
126,6.478762589842628,-5.203406698458083,5.074871706954308,0.0011577171784513895,0.004032613123018503,-0.003435917913453194,-0.02086095232145605,-0.02021241477255112,-0.13282869412703033,3.227751455175234,27.86719964090173,50.818031686020895,1019.0724908261611
127,6.457898790790835,-5.199544138225528,5.083227564101565,0.0013610911383809493,0.0073987121368862315,-0.003999247614197993,-0.03069699220063799,-0.04879812185806148,-0.16749072940457443,4.133644893480559,26.366068202581157,51.48251103703392,1019.0409358171096
128,6.421158277163722,-5.19064349143253,5.083480866629315,-0.001063895626959626,0.00610951980464651,-0.0036914136964834848,-0.05316934418453148,-0.053367723733240585,-0.19493204340640147,4.542746581652296,24.689354600775296,51.24513143068042,1019.0204615376895
129,6.448147452196376,-5.231150365557194,5.098527260563668,-0.0022427284355543645,0.006207486994097092,-0.00335232772750109,-0.027281178484197133,-0.09673557423343623,-0.18436550024452028,4.144835246762408,22.033023801554535,50.16390939848925,1019.0127324933638
130,6.459667691062018,-5.215071793044183,5.236228677675934,0.007717220411843395,0.03210612546762639,-0.018862934560930765,0.019141612179158014,-0.11625067151570026,-0.12362947427784501,3.0559253184239656,19.53600509587303,48.81196002854625,1019.0156657162271
131,6.408997028566947,-5.141703352111911,5.380156197592527,-0.00475031821279231,0.01566555054017681,-0.013134065929306125,0.02245513795870515,-0.13880548414265964,-0.12479327613428091,0.4838709345884755,18.12627622516519,46.82299492861724,1019.0249172923657
132,6.412581677541487,-5.096100563549107,5.489015042281374,-0.004942065391027917,0.009867795920999255,-0.01223393575921742,0.0443920491798121,-0.1558202362992924,-0.09018897152186012,-1.4028397057533408,16.723962000876238,45.22068850284424,1019.0387186837771
133,6.433073716201321,-5.117460093557024,5.457731572895339,-0.009524703658110745,0.002521177811447768,-0.006805582771683303,0.03401510353526306,-0.17976937819597036,-0.09560081408783234,-2.822831875629265,15.437552901058824,43.616008539049936,1019.0526663941132
134,6.4373778001677815,-5.110657242778599,5.425154422484811,-0.006795859494049189,0.0023905782193016545,-0.0065109813167274575,0.020861652254043878,-0.14616462300155947,-0.09053928234950526,-3.938351296689957,13.912895130756205,42.27574255016785,1019.0646804045392
135,6.45307489629334,-5.038161666475356,5.493528961114181,-0.00768883806585344,0.006011881166928306,-0.0009282249071406465,0.05120141906948639,-0.06209449068551734,-0.020545447804106207,-5.0295823960363695,14.373557273139946,41.51115533574797,1019.0737579492036
136,6.454956906775195,-5.098397252310117,5.4877224617107245,-0.010791958139207672,-0.0005342770264916098,0.00323194417411917,0.07154972126393185,-0.05412685548864419,0.01428387762807437,-5.745662188008839,13.55833011810672,40.62874678341477,1019.0806923325729
137,6.429019369298858,-5.14573407879316,5.427209241792536,-0.006479134436319901,0.00017057968736960353,0.002030171765344429,0.058714658293186235,-0.026113433429180946,0.009290587473515615,-6.608514741486639,12.124489873889189,39.36637811555215,1019.085938946517
138,6.4273598510517385,-4.994746077206693,5.571933764393072,0.005689013745372276,0.009162887581683314,-0.003672072557424815,0.07452694320762393,0.10327661026272954,0.11101648582625141,-10.858289971563899,9.166310457875435,22.717211379286056,1019.0900980158475
139,6.325000172851032,-5.017092395534045,5.578840355671836,-0.002208365591119626,0.0010586511058773614,0.004712616510715743,0.022480064101888422,0.11629335064828288,0.09421791592357806,-14.966352243475495,6.37000513495893,4.902866545448145,1019.0937105404314
140,6.327173713855855,-4.795805868188809,5.725739198644316,0.004622414459084542,0.003937802389639188,0.0021422557064521386,0.034284471308050186,0.2775708077103108,0.17508630799579394,-18.299208285454462,4.5308576959489875,-8.492053584283878,1019.0967180435373
141,6.2671126326783355,-4.833174836325742,5.760523786622629,0.001746813420368787,-0.0005060653499858406,0.005510891039345852,0.015148929979099428,0.24357700947120367,0.16580425406348093,-20.565444008565468,3.265763139286357,-19.003734393367026,1019.0998199654001
142,6.265944970934532,-4.8341466003104845,5.853215909470577,0.0025109955156113212,-8.1993088306431e-07,0.004904143376166108,0.035414598937969444,0.2191109612820657,0.21056421308834036,-22.16841649119182,1.3021550988133805,-27.20917514435604,1019.1061237997953
143,6.252684353854424,-4.787727832022985,5.913946700044848,0.005609393527070792,-0.0021286522794911077,0.0029419986290022625,0.03793831958478705,0.2533933615738804,0.24361437667005598,-22.993898042820554,0.9165083366391482,-31.110591202139695,1019.1127237701379
144,6.225226615625336,-4.790944386843668,5.920891801645376,0.0012897243811278054,-0.0027311852317502714,0.0073436737743561974,0.022910592563111058,0.24722492116013475,0.23422256616361198,-23.35848137750397,-0.49312937711304583,-33.999925141014394,1019.1214569019415
145,6.213569830656859,-4.790893916669813,5.921078804054744,0.0073229368877762895,-0.0010496494862935535,0.0022511468546667236,0.013423180343631984,0.22426133877796733,0.20853801214183587,-23.637100518077425,-1.8938204347643615,-36.255557306895994,1019.1290466970489
146,6.219653834026813,-4.795146787250239,5.929466826206339,0.007066857741226403,-0.0018637096956841104,0.0012464499128511618,0.018144916318353008,0.19658272060902657,0.19937339003398388,-23.77320201754308,-3.1520132455851684,-37.94467553378992,1019.1345860618612
147,6.203665556626963,-4.80148353812392,5.92914972358623,0.0013566698915932164,-0.004371845766629982,0.00368734450842945,0.0018756481151565307,0.15540000736666032,0.16903329792655974,-23.622914104916973,-3.7393733178046062,-39.41924989244561,1019.1383198741534
148,6.235634701057821,-4.87090028329668,5.918480895113367,0.004060606850102882,-0.00276894834575584,-0.00011933835358114752,0.02048401112269906,0.05620460837549464,0.14888431896773505,-24.476847819469658,-3.2571620517520024,-40.76479972179212,1019.1381594353618
149,6.191088136545485,-4.843536770182978,5.901213718606944,0.004705424064570916,0.0003306102001897175,-0.0003629932833305372,-0.021053102580181362,0.05928477896678516,0.10647976217367955,-25.442358902765932,-2.651239173959599,-41.98975823541021,1019.1367850330963
150,6.16495257792381,-4.856082142819632,5.892540463154979,0.0023182455366193067,0.0012736022159499944,0.00035852788854072237,-0.0381957601679304,0.025577170894669002,0.07110194766159739,-26.07115815005269,-1.9577445875762287,-43.04202626189964,1019.1357819341405
151,6.18290070879136,-4.856550136216417,5.896415711837161,0.0029451861186061946,0.0006707237283130682,-0.001038064836558203,-0.026504240768245885,0.019448497768840785,0.0738019357975545,-26.653797408284337,-0.793882786313217,-43.589075223272346,1019.1350498285987
152,6.171594108007939,-4.899250468550267,5.887512487084961,0.0016086337939614957,0.0006595891636835381,-1.3934210654036917e-05,-0.027134837166732245,-0.026153339446570903,0.05376121902582617,-26.98588233575326,0.2362769924332504,-44.00620722354878,1019.1345155059167
153,6.172085849271136,-4.933367112523683,5.880348083523862,-0.0020132382762800384,-0.0018156442961981202,0.0020420639265366107,-0.021295831363320264,-0.05837702071391593,0.041516843418057836,-27.26716881301427,0.9729619409594881,-44.3372647689316,1019.1342492653715
154,6.186002435938261,-4.939918796860869,5.888781213968519,-0.001158835782217686,-0.0037225421521529262,-0.00015578041710977066,-0.006869665497174181,-0.061614284915344306,0.05192139890129722,-27.438316519217135,1.4751218642259039,-44.37924424805007,1019.1350029295108
155,6.154815000148775,-4.940354082971829,5.840825821565143,0.0010739555560726577,0.002383128152975444,0.00014373898381662156,-0.037767870722908985,-0.048974368478850575,0.013713612576279448,-27.63026490100716,1.9488480266554458,-44.50688732391821,1019.1355529866013
156,6.180030274186535,-4.927387451378875,5.871750893484387,0.0020802173766520608,0.0003474321556432925,-0.0014655980549821025,-0.010050144348173234,-0.04526022638366997,0.03474059034937438,-27.60900262878722,2.403660656056446,-44.51394047354652,1019.1340995498011
157,6.157906633523349,-4.895799837297188,5.863936187597367,-7.644504957792213e-05,0.000613307487950826,0.0006581343207663483,-0.026871292123978215,-0.015428515575758087,0.019296892093288505,-27.447139186280687,2.9035412971100096,-44.46636994972465,1019.1311630734021
158,6.162304798021071,-4.93847797618456,5.841365293224173,-0.0008342976008498534,-0.0001533085356668555,0.0002955200503606443,-0.022827811049327972,-0.043840840342952506,0.009219416407277782,-27.371356926080523,2.7047569312570734,-43.79871424299436,1019.1282777852293
159,6.173581610150704,-4.925676069690825,5.850860591297954,9.143115747180773e-05,0.00042124828812200004,-6.663944904105782e-05,-0.011269470998354042,-0.03659800909020313,0.014883417871192803,-26.342686002464927,3.598052811443339,-42.19301276395086,1019.122977378374
160,6.206161255500844,-4.924430250735766,5.8868916318545,9.827241323948711e-05,-0.000593117816440907,-0.00028684202878906124,0.020530751980298016,-0.04181737545299061,0.04628691181540137,-25.442460794027674,4.269234953862219,-41.174166262069484,1019.115584451416
161,6.173266001763196,-4.921985920259717,5.865646559932873,0.0004140789103950108,-8.619933156307508e-05,-0.0005120319391429598,-0.00339981602838927,-0.03106465001672195,0.02161358866476046,-25.071663764447194,3.5673924311731535,-41.165461127146436,1019.1054894022941
162,6.174328377006589,-4.950321159598252,5.8425901430430045,-0.0020842430203394102,-0.0012187656094990128,0.0007889326044919437,-0.004495049344544598,-0.04596170555700275,0.011537840383304243,-24.784703270369217,3.146450428076508,-41.108157965577455,1019.0945763334333
163,6.16439306450477,-4.91062565880861,5.853139562905268,-0.0007253725535204926,0.0014887518260949938,0.0010643806758163592,-0.00834753698332567,-0.018077546829553332,0.01099867726679915,-24.959048618234018,2.6203738456222423,-41.57895487761924,1019.0827985131415
164,6.166953147980694,-4.937118990155268,5.854049655802993,0.0004018212860470926,0.0006695571697579575,-0.00014943913846072457,0.00024827672914141605,-0.034313496969949446,0.006438466821611722,-24.881049902491963,2.2289647713618095,-41.681549815118004,1019.0719969888501
165,6.178664543815471,-4.9107083870531465,5.858829797221541,-0.0010724213728169963,-0.0006796850095978521,-4.797854721311452e-05,0.007319482460919033,-0.010665113893783773,0.017111234685495573,-24.781599362561643,1.7488426216840183,-41.54951340415336,1019.0635365097751
166,6.163242020268773,-4.940547156925028,5.834475260917609,-5.203170641181806e-07,0.0009650881835786661,-0.00010834785170998841,-0.003179330035799258,-0.027513915135077796,-0.002202710259685159,-24.743440886644827,1.6157670974967244,-41.5789733980017,1019.0573616816777
167,6.171965446459017,-4.946628673212746,5.854121199478167,-0.0006858637501397656,0.0005692021953038521,0.00011501257971205356,0.012797405631304042,-0.03235946248711895,0.011883920698803877,-24.569202076553353,1.590844222354833,-41.48019835495893,1019.0529683522789
168,6.164573104609434,-4.910360992712682,5.866380274951299,0.0028901930276619007,0.001853698209960333,-0.0023412324048287247,0.010512569779144738,-0.001355200279811928,0.0136275973743892,-24.58895367425773,1.4409268397911053,-41.637178507663364,1019.0498752386388
169,6.161407130218383,-4.95390268839105,5.84219923292507,-0.003220359125600694,-0.00145643672964107,0.0020124185223973625,0.008684196449321573,-0.020020729358958298,0.00848185104236383,-24.56326893208442,1.6318238196569803,-41.54777933086984,1019.0476177488626
170,6.173828250131281,-4.981919228160727,5.846328588398437,-0.0016564475183993557,-0.0014730950553936612,0.0007141175341013105,0.02432772224876764,-0.04326752149105322,0.015751238049339245,-24.51229035168176,1.709315391542818,-41.520819137618204,1019.0451250853421
171,6.158889745230422,-4.964367697586048,5.82905153072728,-0.00038557932397053686,-0.0004960099701519407,-0.0003330241634556647,0.005521854880882866,-0.021857630579371207,0.005750198926652246,-24.541187039103914,1.908200213919503,-41.5303871303861,1019.0421722548906
172,6.1748694243908755,-4.998519216182685,5.813365352701605,-0.0002957857999953688,-0.001382494042319269,-0.0010858511509549977,0.011764920455211408,-0.04404554474114371,0.008206882300514142,-24.703167429778542,2.163700910027894,-41.48985961357703,1019.0394400962597
173,6.18248088109632,-4.964118363829344,5.826137630059681,-6.57766251325671e-05,0.000751496858921747,0.00010065229887062997,0.01484218793296442,-0.020229674745074814,0.016890595224908357,-24.780188164991902,2.315677401873769,-41.48019836472315,1019.0346015724999
174,6.177646133260327,-4.949081401837235,5.838673251790175,0.0008276604062144473,3.938213186221572e-05,-0.001097613937545982,0.014327906532541877,-0.013543022774496096,0.018379119681162053,-24.780603393200643,2.626499761328105,-41.425177038539445,1019.0290297161218
175,6.1992613328040855,-4.950730229674517,5.855299795113233,-0.002218949961429498,-0.0023395689155899014,0.0006770217663023869,0.03125244082156141,-0.0219546370840897,0.03483533920491051,-24.813252921461252,2.865038506175677,-41.35542187592487,1019.0215416029326
176,6.195981425254407,-4.9513462226722735,5.7805919879713565,8.070247694191976e-05,0.00028466053434252287,-0.00045492574894699287,0.015093409869812113,-0.0075133791449993395,-0.010060875448090686,-21.67358506013376,8.326133643137489,-29.01886906193731,1019.0133970407273
177,6.195897301993897,-4.928007979870548,5.746487933255362,-0.00034623410023750764,0.0017832830661245833,0.0002981519917792724,0.013573139332960095,0.01951510192962124,-0.04082233926272308,-18.149321177371363,15.091877527437573,-15.200684272302064,1019.00485577093
178,6.241542062256543,-4.951252288719075,5.77163289335586,0.0008024478177090502,0.0008068046242012941,-0.0010841019080216848,0.059547163446771544,-0.004515995640792345,-0.0176993241176299,-15.645651111117008,18.99461680540811,-5.2321207483978736,1018.9973441393436
179,6.254821959091154,-4.97674323313517,5.746766457266499,-0.0021257523797601784,-0.003435852699156354,0.0001703091942332779,0.06356836688331145,-0.02255651076668844,-0.026875315998670702,-14.224039742795098,21.807100587742127,1.3059488185097266,1018.9918618216915
180,6.2855515615997,-4.955277109577929,5.758334286291167,-0.0005233775181125921,0.0003359442739712345,-7.24436559830706e-05,0.07901191318388023,-0.002002465627445712,-0.00010846348134810682,-13.342775065025414,23.532078859367623,5.933851191422094,1018.9886851029672
181,6.2775139916047875,-4.965531808136178,5.745067540377905,0.0012802045231053803,0.0005853875418688012,-0.0016941556385447784,0.06770119644317085,-0.010259944477993272,-0.008464837074271363,-12.60615020239174,24.580611639178215,9.39698927202037,1018.9863665945397
182,6.287075065285374,-4.955480698487121,5.745804752134555,-0.0007939240697298201,-0.0002965045632402646,3.1289331885305145e-05,0.06969745134451706,-0.0035295215380594215,-0.0030682584355375417,-12.147178890058107,25.896925039886824,11.754340944942037,1018.9845299119928
183,6.248934540739934,-4.9198076290715225,5.69136121386849,-0.002700704107645157,-0.0003281295641412973,0.001449533206889061,0.02182927845035003,0.039529132635581304,-0.04064569733907698,-11.915885105590972,27.42983100756535,12.762998701217285,1018.9831894206452
184,6.242250115811651,-4.940742960540537,5.705944862911837,0.0010799983787277779,0.002280523475217043,-0.00035496234611577873,0.028778621512124167,0.016026097071853086,-0.04288891958876933,-12.618775265897465,26.990873611078708,13.472441367410697,1018.9822110713621
185,6.258635342406033,-4.935626497795045,5.725518463117495,0.0014285542226093928,0.0012769380893051024,-0.0017128314914605957,0.044496461627305285,0.007179827214059117,-0.03473793135837004,-12.748728888037228,26.979468736940504,13.778738238360537,1018.9814970292152
186,6.264366340226306,-4.924253288321624,5.7277354177164765,0.0027833698788360716,0.0009929454704440612,-0.004218043750197735,0.03813341600059762,-0.019095073793433587,-0.0512397187981581,-12.931213454795493,26.677082411480527,13.815450358725164,1018.9811204235632
187,6.24063166928986,-4.930324564596194,5.716962769136969,0.004688667926917194,0.004922641568027452,-0.007081017644553966,0.007483554194740876,-0.06382803000514303,-0.0867986835475571,-13.427600016642252,25.57367696422295,13.300842150021769,1018.9832364427426
188,6.28106908493481,-4.916040520433096,5.789535136053287,0.00489817661129492,0.006610604094383534,-0.009277562947565514,0.03511082957603876,-0.12667397880524706,-0.06278723735920633,-13.831859649025956,25.160774420376693,12.912990229579162,1018.9877074084394
189,6.280754026006334,-4.93438394441174,5.779248841501923,0.0003779508965858899,0.0008165133269616475,-0.010380708533621613,0.00926782880013656,-0.20692185005144326,-0.0956473240083133,-14.671067611433791,24.73127689198509,12.341699675073365,1018.9924752850803
190,6.31142782411972,-4.931197311489359,5.788950817896292,0.0005395246033903841,0.005933616729256715,-0.012055508352427495,0.00920180426598088,-0.2511524189523996,-0.0911827081718718,-15.196668538007152,23.56421469185562,11.916095638667334,1018.9976038535902
191,6.297129955489577,-4.962916636894427,5.753299496896159,-0.003986072693125967,0.004472360348992496,-0.010279816608791235,-0.019476985828929715,-0.30504987991214216,-0.12970842503119034,-16.281081412370796,22.099391246413667,10.881491978687334,1019.0013469074593
192,6.292027884735696,-4.957649258077295,5.74922522155173,-0.0061147479731664504,0.005983511174016359,-0.010149782905187027,-0.03066032246392017,-0.3058171210320731,-0.13270192415292656,-16.308983395349003,21.510260360513566,10.943157193894317,1019.0039552906853
193,6.280161007940318,-4.988147515066856,5.710211389425949,-0.007510454758394208,0.006076183866501578,-0.01037386209200524,-0.04810658755238026,-0.31111277282151817,-0.14587491340291397,-16.373013713511916,21.029229512152366,11.052901404172411,1019.0052816791551
194,6.301850870518532,-4.998920171495211,5.727531602227425,-0.007807533839882409,0.007286496457033477,-0.010199732236530938,-0.02447646061924877,-0.3003826150541561,-0.11373231445834421,-16.695695362280862,20.07303906140837,10.744657905309271,1019.0062086717962
195,6.2789029922135775,-5.000361569816696,5.705657677184259,-0.009864379296588592,0.004937326988713757,-0.009689450311682377,-0.03986184879657849,-0.27609682546667,-0.12315339595348022,-16.83103143371571,19.697193071961408,10.564932253924022,1019.006885231617
196,6.278304479730868,-5.014684947288932,5.679204782226978,-0.009328544830036839,0.0055739409788772894,-0.0105466955638512,-0.045658369825884296,-0.2525850019330509,-0.11275736931491491,-16.943558173650235,18.836914399543602,10.66834128717529,1019.0079560682681
197,6.271191124437509,-5.014894682321377,5.6659464085098845,-0.009084623989026631,0.008124052605166023,-0.01026045742047172,-0.05325250768259636,-0.2268490368887887,-0.10421728206327728,-17.51872354169437,18.381132400421397,10.115494463590194,1019.008737611746
198,6.307240331670255,-5.016239907806975,5.700753947126795,-0.0103881165559326,0.005113996417064563,-0.010555163276939492,-0.017997601819823003,-0.2184713693982069,-0.05139909178619945,-17.98024065044127,18.338054323531107,9.880207182915399,1019.0086072311849
199,6.3393683733482,-5.017422605017671,5.711718908091056,-0.011570347923542576,0.007535749540255683,-0.009386663049115854,0.00032382892578878414,-0.20149115598183387,-0.021625055376204887,-18.643591959377346,17.589839788773684,9.222202485282498,1019.0080792834908
200,6.264220718264498,-5.017952255484002,5.6259062320468125,-0.010989677184021957,0.008742285881613368,-0.00891462245758423,-0.06835116073412817,-0.1689183565502135,-0.08577826575062394,-19.00950422500544,17.777623417829016,8.842216857244399,1019.0072611738944
201,6.275667684176877,-5.0109198166624624,5.679024282342121,-0.00794729477211015,0.01118620350312436,-0.010915368604038144,-0.044195286574562814,-0.1642536718162988,-0.048438726982732064,-19.3842069710654,18.586504002280545,8.99849196158229,1019.0066227477871
202,6.302921101233702,-5.0416035475130805,5.7161907636182985,-0.008903151258290306,0.00728256223127139,-0.011709959244495036,-0.012105077738712014,-0.19248139298503975,-0.014493881910219053,-19.713222956175198,18.786722528013797,8.752976789496666,1019.0058269357238
203,6.299620686986449,-5.0092802187735455,5.716047434882678,-0.012910534819530492,0.006086551033915999,-0.008758067106578407,-0.021877361551280165,-0.1599846871327355,-0.007278400762570215,-19.988256541178988,18.5859486872464,8.483544252624233,1019.0042157414408
204,6.275470094598863,-5.014596894278448,5.698328260555969,-0.008677545020902028,0.009073446078759284,-0.011664510851086126,-0.04128487044316208,-0.152382308123962,-0.016215174839877854,-20.305393510225176,18.211354373256246,8.144748113838219,1019.001906245837
205,6.284753095367439,-5.012233997331442,5.721595890371504,-0.010859145140554815,0.007613268319479878,-0.009823905376087728,-0.03101614518398346,-0.14525207639820234,0.005075568841945353,-20.901041833193045,18.955653420302664,7.778296553865861,1019.0002206748167
206,6.265095450618072,-4.999687290691936,5.7615971325227076,-0.009419451262191167,0.00781647731300204,-0.011506202944434258,-0.04000010763947998,-0.13174832769181147,0.034646493752888405,-22.759131962392864,17.771807817343493,-2.204272042100115,1018.9965169210022
207,6.321480886352513,-5.022659208612241,5.820933655404959,-0.011668715667861585,0.004424315458915383,-0.009973727962784807,0.009470884191417533,-0.14579752890018177,0.10963643434617683,-25.22788018720341,15.29133249606282,-14.136186737838193,1018.9900626402862
208,6.191812022208487,-5.017198851416007,5.714212531378019,-0.011386582640794698,0.010448962250840545,-0.008396393396277131,-0.10358198156762839,-0.11039306836198441,0.010857698118681938,-26.709920675530782,13.853726714261677,-22.5389345345839,1018.9843832434229
209,6.165987201896776,-5.0107436088644395,5.75036818466431,-0.00833461991913811,0.010942795546658725,-0.011659668170481792,-0.10372569113813156,-0.10760868592524973,0.01621644970386304,-27.65365238166802,12.566387673534171,-28.709674597035345,1018.9785891373847
210,6.1902325794715765,-5.007384053452622,5.791127842086736,-0.011546420572260333,0.006021921053027523,-0.009977164154889608,-0.07400883876889403,-0.10322845143203234,0.05186063844069255,-28.378233559269407,10.727728308977879,-33.284755000938226,1018.9741336840232
211,6.212562579395254,-4.998400060369142,5.823010875289536,-0.010173221867173374,0.008901575409643515,-0.010326623944340056,-0.05113273225141182,-0.09358051982827577,0.0836401861432984,-29.051326448115635,9.16059414430542,-36.59386213241851,1018.970881899064
212,6.170856231452405,-5.020355308300801,5.797519564333972,-0.009230770418524289,0.009280502403199107,-0.011546291648852193,-0.08048552423655475,-0.1064597642637131,0.052428302907087554,-29.4642202893824,9.44744444290929,-38.72385329623437,1018.9687971308455
213,6.170603460518838,-4.9881100072974,5.820970991883195,-0.010160427589816336,0.009104155035542487,-0.010336047162743816,-0.07309003706751396,-0.07886817787092953,0.06357133293749952,-29.735043396240112,9.425748860878334,-40.32012434566216,1018.9672755757115
214,6.1855845376702305,-4.995556551312757,5.835217295164225,-0.009603673405456741,0.009195785512282974,-0.011837579464246165,-0.05498141081305633,-0.07410328085967913,0.08486458541962508,-29.928065903885518,9.27946821907025,-41.304743859436975,1018.9651962979729
215,6.183018924016954,-5.018163525585624,5.842378915330407,-0.011755321515559797,0.007464074769781548,-0.00960549075096767,-0.04602338477622877,-0.08599310262843289,0.08870565174637504,-30.11902059232381,9.301543061266356,-42.25990628588548,1018.9632562257162
216,6.188567903609289,-4.997508412163278,5.867177956629516,-0.01077304222706791,0.007675762693612465,-0.010266859632164034,-0.034492210001288694,-0.06833152829625005,0.10442546390972016,-30.242907104125422,9.123941190974165,-42.91834027463783,1018.9614177517158
217,6.179203205269089,-5.011219562561132,5.856059614705327,-0.012851578558601919,0.005419882749427183,-0.009137686310026349,-0.03899130763472953,-0.06806533124110196,0.10005686106779686,-30.212512469072145,8.83860351729481,-43.310545177217065,1018.958447721398
218,6.18931818238148,-5.001633701375197,5.8621213761711735,-0.012597046490592581,0.0069883538535803575,-0.007811585955139289,-0.025558401200034418,-0.04818750146260384,0.11134944906035443,-30.318853593684786,8.43928428694042,-43.69839746912478,1018.9524670784457
219,6.183428344960883,-5.009173035669681,5.857710328605981,-0.009659178907598714,0.007785069686030114,-0.010006237119869359,-0.019884714889672826,-0.040882419207817725,0.10728966562900533,-30.34787111003879,8.14368846463396,-43.95061841615537,1018.9438974320564
220,6.142631563813455,-4.978931241346235,5.826504504864182,-0.011983731508997425,0.008211128163953906,-0.006476351938411393,-0.047271253046130904,0.0027507850677393753,0.07327844647000839,-30.476323755627806,7.850379774644869,-44.40612823573103,1018.933685410525
221,6.117899880713889,-4.953358217755032,5.8304862204650885,-0.008825498942307324,0.009307222634283128,-0.008827400718491451,-0.055250707731886665,0.040554936585886985,0.06556238121761367,-30.79902899552508,7.356661389736745,-44.96997559155177,1018.9240269448885
222,6.1311071272828555,-4.9755562220463885,5.855886096034755,-0.009720066668416651,0.0067119040979419595,-0.00848437795662416,-0.029495517851883955,0.021365262512153385,0.08376003366840663,-30.903359088898966,6.593573288447167,-45.309310358810464,1018.9139066379244
223,6.1667784433063,-4.9611220894199946,5.903633503160948,-0.008699437216068435,0.008025429563786107,-0.008873347188779343,0.005750798808360363,0.02464691361119231,0.12247778911612298,-31.029440859279433,5.176202669791422,-45.55016580243022,1018.9065203947525
224,6.152287053799402,-4.982776331437092,5.8585096260885114,-0.01036059077486641,0.003147243931522551,-0.008665318267928391,-0.016070303603307225,0.013484465553781308,0.09445929955203407,-31.349696520943606,0.25121873117984794,-46.849162141910035,1018.9021397051322
225,6.1628700822463705,-4.969198940215431,5.865619276946029,-0.009649159773830667,0.005805950781690095,-0.008411619701895943,-0.01169766349091064,0.02307880827317183,0.10478106503433122,-31.587190150892802,-4.313893954012508,-47.888581942008955,1018.8993544742482
226,6.185482995202875,-4.960257683331458,5.888187421252342,-0.009143368142852477,0.0046393268000340625,-0.00902046671008041,0.0062878880009271994,0.021539784986304156,0.12327445403836243,-31.528711101737233,-7.624906184772376,-48.3037470805921,1018.897321690789
227,6.156178825027152,-4.94814243726691,5.888433570110158,-0.006877069047521438,0.009432294725963554,-0.010176244005537339,-0.01715538860419486,0.026141167673353068,0.10369200320027996,-31.494415657165323,-9.887770590547031,-48.816440757922045,1018.8945397056544
228,6.215405659713681,-4.94586091328167,5.935905210149151,-0.008283606776072068,0.006315082811950146,-0.008896732617336811,0.03259490997339405,0.018737883561385324,0.159369077443169,-31.503796822932905,-11.940556546733518,-49.042411318958585,1018.8897885478755
229,6.157286064955054,-4.934949063260989,5.88251585155109,-0.007580065297153105,0.008275428774492064,-0.008593140645466164,-0.021643398724241147,0.028543525303229428,0.10110688856614083,-31.570130327813335,-12.830177976782187,-49.36003989936158,1018.8835796698023
230,6.177064349991733,-4.879878950318598,5.940247695452446,-0.010868553959439264,0.006260605768403423,-0.0047404725110226035,0.008558114121315814,0.07252355532094051,0.1385366315880467,-31.59974148198861,-13.992432517767616,-49.59284593140981,1018.8755647645135
231,6.1221152103397785,-4.942175828086886,5.872571519049573,-0.012631858038464167,0.005408725138418784,-0.0021231221976543194,-0.017688987670250483,0.0713654196363158,0.09423039557014164,-31.701104072208086,-14.452726674015143,-49.877235261003236,1018.8685506273247
232,6.121157818604582,-4.910128694740918,5.904466403680434,-0.013960903228958082,0.003664747222406068,0.0013441627698067807,0.007733351185724723,0.14453997146515535,0.13428687045088034,-31.773677899142825,-15.417401427338772,-50.15154419270066,1018.8622668945171
233,6.125087560733168,-4.942939145190873,5.890914023815815,-0.010378887264139162,0.0019898866675400655,0.00010761082753804239,0.029127433258720675,0.16402254803135763,0.14890987172882583,-31.75498662106104,-15.79190063699895,-50.37742249634162,1018.8572274290377
234,6.118009397181437,-4.956908768795908,5.885856345247852,-0.0097824629355401,0.0023182202834908295,0.002367727437364649,0.03783208385949255,0.18069974726460153,0.15431368876969462,-30.867051123763275,-16.36255031339382,-49.07882631792372,1018.8532608796278
235,6.123222603887058,-4.901498056632301,5.933900692290667,-0.003985778854413677,0.003169631157532306,-0.0012720025358279705,0.05706424879266281,0.23268981657889193,0.18418516713684618,-30.02175938529901,-16.579350292826412,-48.38533000604395,1018.8503659181806
236,6.105979563910954,-4.9240152799435775,5.9236678407820715,-0.005106892198303785,0.0009186465287395261,0.00036638213791916627,0.04768453805404568,0.2128580151157876,0.16766753572623302,-29.35843650199956,-16.6777658281842,-47.784420214581296,1018.8482530485516
237,6.105723983596316,-4.909989617512825,5.920579037937386,-0.0032802373099853274,0.0017616976834997204,0.00022200730016269974,0.04523105728268559,0.21544793055174327,0.15645678902255675,-29.056797319192402,-16.845517491374206,-47.50318913478456,1018.8467109837777
238,6.151295369312296,-4.906279175236745,5.980127325453103,-0.002597484135267354,0.0011811866499891305,0.0004017300469910004,0.08859032306071589,0.19245747309941952,0.19471861112137245,-28.703185077113837,-17.242050552646937,-47.211254945616,1018.8457503126708
239,6.103752927120885,-4.909103546991871,5.9372471014863,-0.0008598990840355042,0.001618976409646252,-0.000572133135771316,0.04695779112786869,0.17776261018736525,0.13510733458833926,-28.479589297830092,-17.03793391451631,-46.98405257232159,1018.8441627903
240,6.109122261089001,-4.894979143025364,5.9455299755082365,-0.004347166092649334,-0.0020310951550182883,0.0015913485581277743,0.04883826905930674,0.17560511678081003,0.13284120815994335,-28.40210915803183,-16.90838026302103,-46.88969284215374,1018.8425508248355
241,6.103872629472461,-4.921528564535198,5.936694312158738,0.0002936264584658529,0.0014766023158683229,-0.0009985421810307766,0.046769826248804415,0.1460426833509824,0.11792779653516537,-28.285832311222872,-17.08164852550297,-46.82812755694579,1018.8413743418546
242,6.101987159406412,-4.896148853482888,5.952860144605179,-0.0007586553693535154,0.0013081150527436698,0.0005104946069628392,0.04519538207400144,0.1487284130480663,0.1140901493673012,-28.341794392510046,-17.885831800733065,-47.13652863320547,1018.8409690151826
243,6.072147428497151,-4.8976989074852515,5.923323203535798,-0.0010597662264791505,0.001088415508007738,0.0004211968285340769,0.015441691981275797,0.1359963708290345,0.07466537703299121,-28.6578986898751,-17.686476179979913,-47.55335605360536,1018.840673190029
244,6.09534410012092,-4.904404363073649,5.952145986302226,-0.0022376764845881206,-0.0005314563244417916,0.0012585537244620137,0.03852112360242082,0.1213202043691813,0.09759531618965639,-28.56947049030563,-17.912647167515928,-47.398855314938075,1018.8417559247887
245,6.124956962065687,-4.931388113107647,5.960911400692271,0.003440982261879548,0.0007198764701951848,-0.0032261293972948198,0.05876385074802448,0.07405401799323821,0.09717717630892593,-29.369324487871673,-20.629472210336317,-48.60164372498529,1018.8434735983026
246,6.1186897070253385,-4.909178562601399,5.963498391487133,-0.0025833082530428864,0.0016897262587135765,0.002516682953416763,0.052123224949355396,0.09000328109632882,0.09508416375613417,-29.86447070737207,-25.487717838238844,-50.04807571842468,1018.8447272316467
247,6.11119344334114,-4.876426135854758,6.002276063294149,-0.0014074337839762672,0.0015880183013201109,0.0014414935865651138,0.05931448010188952,0.11595335826747193,0.11322500905640187,-30.433205133246826,-31.14352170744983,-51.91971268475977,1018.8450959322952
248,6.063350812537864,-4.90683929028921,5.978376182677036,0.003171003825206159,0.0029451313126521604,-0.0015531271969242459,0.03127560068219211,0.09356314370840586,0.07599816473197235,-30.835485146764345,-35.376091930743286,-53.26287956306257,1018.8448187703127
249,6.0675849973970655,-4.912800309244996,5.992785485036776,-0.00212627135346722,0.00017201802788695437,0.0016012639326956847,0.03993204164670011,0.07543104710057158,0.07554672676094303,-31.03041704029849,-38.474052636704144,-54.01748916796798,1018.8419989418246
250,6.051505344729314,-4.918112008145195,5.969782633579483,-0.00027653785963465067,-0.0001278749152733753,-0.0006856634165290064,0.02397054148564519,0.07929474894966317,0.058830625831048214,-30.568561622162964,-34.61102997019534,-52.733026734968085,1018.8382713421297
251,6.059677996080408,-4.945778372223482,5.960608872623863,-0.0002882682535690651,0.00047502336091528435,0.0006897591974976533,0.03139448098768007,0.061951406255340166,0.05941815256620559,-30.038262594939386,-29.949497580897287,-51.2156020483561,1018.8352827816856
252,6.053168028016232,-4.938233963217814,5.9718944073133695,-7.210683956880993e-06,0.0014926113080520101,0.00043087441385459196,0.032054098048356766,0.06406986400652961,0.06025284620085295,-29.38903801751349,-26.097112155891338,-49.88713090643148,1018.8331015994099
253,6.069868499948584,-4.942802779741094,5.951665174618016,-0.002258974267720113,-0.003452368790018386,0.0005603856231382134,0.042366498548478584,0.06202669060260679,0.04623849838171615,-27.34151637291074,-19.612328349741126,-40.15044016964188,1018.8317776720374
254,6.11217617381405,-4.964925418430541,5.91960332393667,-0.0011270775588577509,-0.0011494598675728693,-7.170817335964291e-05,0.06736408924961956,0.04569276187239472,0.03898424263401265,-24.210786579855352,-11.688418526843959,-25.17373639500265,1018.8314711333381
255,6.131458591046778,-4.940562595444387,5.9092966301535865,-0.0017673413314198269,-0.0020663276956086715,0.0009717617075691729,0.07372404661843009,0.058093099568340786,0.028841765480007362,-21.36347820511164,-6.8000357921733965,-14.235396766801884,1018.8317007300961
256,6.122503158209608,-4.960780768538714,5.861688455798621,-0.00015848178034237018,-0.00013496667492421573,-0.00021279893625385877,0.05912248279044341,0.043098700525479414,-0.005589910710359049,-19.770053676127894,-3.5056680643649956,-6.308485701647362,1018.8321981605984
257,6.152774167625829,-4.9399001145932075,5.880584706980712,-0.0009945663247399141,-0.0009044405039581755,3.639074556123728e-05,0.0785065204253967,0.055426548249278874,0.01819800101271762,-18.870163451218477,-1.5349331402366435,-0.9227187252011051,1018.8325612071606
258,6.172633406762321,-4.959453696406902,5.87849872574007,0.0007951387493273384,0.0004455538197353561,-0.001295420586152066,0.08918930703645143,0.03796906102626102,0.026766056156230955,-18.07248303718767,-0.40493015772636,2.786455096623641,1018.8318160603625
259,6.1609557709237555,-4.9415529361233,5.866126856643667,-0.0006083746809178506,0.0014563334385974745,0.00043206920222069504,0.07289027729295697,0.05253847861728065,0.01688293642747258,-17.51741825921222,-0.14406554195275806,5.333328004336848,1018.8312722196007
260,6.152497871464105,-4.93711864187215,5.862103269167352,0.000932566260090824,0.0020062652550983428,-0.0006478016439297378,0.0606443554516735,0.05134935185334376,0.00971776141453247,-17.055617086250958,-0.12299701034032598,7.199931968249003,1018.8313702269791
261,6.150486133931334,-4.955626531657775,5.852355885605985,-0.0001938551433421328,-0.00017108792023970594,-0.0006077396364388949,0.05345196827088901,0.034257184331750776,0.0075898074269862715,-16.937788227876375,-0.2833690890467948,8.37234289384381,1018.8314417570554
262,6.170267134195638,-4.95439345266264,5.867219789528012,-0.0003516714724954678,0.0002893558644260557,-7.80272664623995e-05,0.06304126110830943,0.027073107140073098,0.02670761981488924,-17.29549779929417,0.392869980192907,8.997733324918702,1018.8314939628373
263,6.170325563436435,-4.944904991068264,5.863073211030679,0.00029987889920459756,-0.0003005805284510367,-0.0008704996684418909,0.05383507615401604,0.028965157468153365,0.025676029580214654,-17.099887512968557,0.11189706158265367,9.386666751107027,1018.831552596775
264,6.171653369807349,-4.945199126878178,5.850457071937795,-0.0016450474442239052,-0.0017181908355579651,0.00036662618404922844,0.04538942593046751,0.026495725042682394,0.02159677317173088,-17.109506271073794,-0.5232704801067288,9.652206397442562,1018.8316159222624
265,6.168648578106667,-4.963065042805194,5.817903763567855,-0.0019124166600924973,-0.001475077544891883,0.0008541257741731985,0.03217892600306819,0.013650272889120157,0.007192148295309704,-17.262594133103978,-0.35694182810987296,9.6695136571299,1018.8316621399758
266,6.174949741665532,-4.964012727988449,5.819160575930566,0.0004946586864490758,0.0008319775948989797,-0.0006306374335765619,0.03262810841091128,0.013696691091686869,0.013401825822931715,-16.96959044117078,-1.2956163261228864,9.56161459089232,1018.8306241619945
267,6.1654304251511975,-4.948982384413466,5.822932061077025,0.0005941907267248935,0.0021007806713265673,-5.3629132576065493e-05,0.02235049760615157,0.023606380755923587,0.009167298997962951,-18.096400894173566,0.6314336882007388,8.325264665782125,1018.8297428686675
268,6.170616230023077,-4.957310233477694,5.842539772079898,-0.0002278230612771055,0.0005649635872172496,9.090232554504865e-05,0.028660978563145048,0.012978584283021205,0.025670567667904987,-19.2302757381494,-1.1628344711708016,5.790761304957439,1018.8292233937524
269,6.145965732742021,-4.973045985026422,5.8712499775368725,0.0008838233238820302,0.0024561240593043146,-0.00030347607687961824,0.01545790198671515,-0.008653011205044515,0.0393868852680043,-22.223104595251524,-8.376699248749825,-9.67643666280509,1018.8288029243121
270,6.1256543112743485,-4.961771366276841,5.9196840901988255,0.001065264511382853,0.0017124297644121617,-0.0005719874703528788,0.011338260300431356,-0.008803803240378246,0.059702144285035674,-24.543163969029223,-15.71073252928922,-21.852707023175014,1018.8286403107201
271,6.0939694515041785,-4.944761360894467,5.941193896671881,-0.0005131404235303165,0.0005286660340788959,0.00041979678314599494,-0.0026725091608832997,0.00023114925518467715,0.058643653407083225,-26.303883525785114,-20.917045694930074,-30.607560119646216,1018.8289544184515
272,6.0787882744222,-4.963008925906007,5.934409611949249,-0.00014773014396130907,6.929038231797416e-05,5.840599627659495e-06,-0.009413714045649503,-0.009368801223459981,0.051625539561215496,-27.68562384254318,-24.43439128879105,-36.87685111066189,1018.8291836680281
273,6.060498861484919,-4.944385382570765,5.9508683468716495,0.0006190131241016572,0.001951375429201673,6.63992822314441e-05,-0.017036101749129354,0.007210656300068211,0.05322412617821273,-28.643216014442338,-27.185645141397426,-41.60821586151364,1018.8293509844075
274,6.045138185629333,-4.952025375044818,5.966613203183438,0.0004678448875261508,0.0014368155214624645,-0.00020215116981774336,-0.01625638256114764,-0.0027341599849204437,0.0495192263150014,-29.05213288948388,-27.439724593650062,-44.3402629144463,1018.8294730992277
275,6.0528027570510075,-4.957951580768684,5.967037859559894,-0.001699394190760063,-0.002280477071647357,0.00015583486410440122,-0.008014864381718504,-0.006094946447581073,0.05203468293903541,-28.673810967016863,-23.00002494987676,-44.653077926707994,1018.8288203750128
276,6.059749566053891,-4.9533146851813825,5.966400884673266,0.0002582953399586337,0.0004525354486783549,-0.00024063196479109664,-0.0029519687839655445,0.0010454326446131673,0.055597402555740805,-28.501238646863992,-20.098861370484872,-45.142235309623906,1018.8270042836446
277,6.045046663957852,-4.954463659496068,5.9502121876660565,0.00044949192127300634,0.0009461571701307145,0.00024734930154784497,-0.013714281926970313,-0.004635491100042227,0.03179119557139935,-28.221684778233303,-18.467475914881906,-45.28448328425973,1018.8246687065646
278,6.0551477626407815,-4.962827183216877,5.971453699949851,-0.0013181169980504563,-0.0012535582512282315,0.00025162882193821145,0.0035508605348213134,-0.008899726120939632,0.04862325452820429,-28.506901433609276,-18.474760368702565,-46.145317995915256,1018.8229641001411
279,6.043488425632074,-4.97446415925608,5.935050369364499,0.000997566461816863,0.001489165803933005,-0.0005380238109347687,-0.009869803265320434,-0.013335225406366447,0.019800440844496305,-29.161977160727307,-20.885402510469635,-47.7516805703612,1018.8222765255282
280,6.03362744828213,-4.96488256749601,5.941999365374978,0.0001816396415320892,0.001186382345083029,0.00023291521489206984,-0.010058842560949062,-0.002382664897435995,0.015603901526544003,-29.179771808381506,-20.48909923103735,-48.036072262375775,1018.8222178947336
281,6.048867028569771,-4.975871258205352,5.96781076571375,-2.7451924057649956e-05,6.638859090860884e-05,-0.00016012362406291834,0.012900747902177741,-0.020995531828869533,0.03224907140997725,-28.943440257343035,-18.576373929079573,-47.596122146628296,1018.822618294678
282,6.041280719386891,-4.957433048612856,5.954931393928337,-0.00020252744272406981,0.0003876308934509284,4.669246521256132e-06,0.004716820880481715,0.0008878442749626798,0.023190491017814462,-28.730444242618194,-17.02861509463747,-47.275367209023734,1018.8248891481859
283,6.032461000289968,-4.963227174368223,5.9581108054076575,0.0009454077255128288,0.001430605429489191,-0.000533722462639692,0.0027998728820236313,-0.005475870816814569,0.018335732441274347,-28.572397112715898,-15.974507657318412,-47.03511415442091,1018.8276800919774
284,6.043240626758554,-4.956172597059852,5.9785230300655385,0.000939414380243637,-0.0003763994828288868,-0.0007057796588797098,0.016863713079347233,-0.01101403018455577,0.02356243826368927,-28.65993118327648,-15.625792904541006,-47.08219081508209,1018.8312423469389
285,6.049682459705868,-4.9639632407413865,5.980771588187805,-0.0006627354157380437,-3.099396210296668e-05,-8.459676614958728e-05,0.01908108490043304,-0.014271814725282252,0.031339300294325245,-29.151266423622197,-16.76133021914093,-47.89761289678255,1018.834934748315
286,6.065592686508857,-4.965016050494033,5.994267633016986,0.001238722453387413,0.0013356245255956873,-0.0013120935001981833,0.03266547814432909,-0.021287099674994887,0.042889441244600646,-29.80290609212362,-19.911768245965913,-49.206177683396774,1018.8385776026702
287,6.042149422420411,-4.940069062273272,5.995658536840262,0.0002069649632162763,0.0005080837876982781,-0.0003557095794550745,0.015681804015999477,-0.005921928129615759,0.030331792258134538,-30.44594295157305,-23.14803283519509,-50.71771792796341,1018.8413805807095
288,6.045427398256137,-4.943829923688062,6.001814327949243,-0.00034839148611412647,-0.00015501713216128595,-6.472205959111532e-05,0.019317514144059474,-0.015372458487073222,0.03173978775037624,-30.914853861550924,-25.716896668473737,-51.85331149268635,1018.8447249577301
289,6.0519599879651125,-4.943359837694026,5.995925507081149,-0.0002794150906709337,-0.0002835070081771018,-0.0006588097437836046,0.0204036427321256,-0.01285661989621297,0.0333019146209443,-31.665479686361493,-27.95420372963364,-53.182117782939635,1018.8473306258131
290,6.030560271309113,-4.940338046640603,5.973772811351276,0.0001938464243016424,-0.0008140363705700183,-0.0007348020548809088,0.0021862018267236535,-0.009835968147736598,0.008797676634548564,-32.05886432848057,-29.564611656595176,-53.87999196022904,1018.8492323564774
291,6.07438857185204,-4.909867610347791,5.967756035106422,-0.0018786507734019715,-0.006124356479191125,-0.0005368011179237688,0.014164817566635051,0.01616448938539921,0.030154508421989842,-31.94857461868039,-27.830214137360404,-53.13351314322969,1018.8503317959551
292,6.107146234200823,-4.945024025087991,5.92802626008446,-0.0005684358452183996,-0.003150760929667305,-0.0009690326419185716,0.018762076266236688,-0.017721611582182162,0.021059629698615127,-32.671858242527286,-26.141207119175235,-53.1636846925887,1018.8509694197392
293,6.11884961846125,-4.912822111553895,5.918972794382774,0.0005175198357237605,-0.001207314297801063,-0.0013388846485724978,0.013789004893218612,0.00542929610258688,0.021872898062328464,-32.278201604817646,-24.19422150487617,-52.381617086117586,1018.8514347854971
294,6.127519049028547,-4.874108892502586,5.929572925689183,-0.0009579210757845948,-0.0008087341423793648,0.0004016923241563727,0.012724784857018135,0.028419709258312345,0.029618861494922176,-31.941041489873953,-22.941791736256278,-51.875609845702265,1018.8510736445911
295,6.149168844169427,-4.977650944480986,5.899027870989848,-0.0019415746815595529,-0.002071328646140164,0.00037387946864766313,0.025536285070023985,-0.06215322216901961,0.019209339674539062,-32.38948548699959,-23.30683737742258,-52.42512757001999,1018.8508100681443
296,6.158483375917268,-4.935072453122392,5.900335942345186,-0.0029445359949949795,-0.004148187308481738,0.0012463426316839516,0.02336156095581368,-0.035464766718831156,0.019562872465384625,-33.4097552623109,-25.81553030055558,-53.77729586442925,1018.8503187706634
297,6.163807886572669,-4.916120964839192,5.922823785170765,0.002339115801041053,0.002801964146867249,-0.002013664016198109,0.025889542705554297,-0.02699677401140077,0.0363228183133684,-34.054704654519654,-28.09124634915332,-54.854599072717306,1018.8496612724005
298,6.15402221628241,-4.903453991751772,5.919640303280462,0.0004607455624013508,-0.0011742868354966685,-0.001557639024544193,0.015764217735449268,-0.01206774156403414,0.03539529248758208,-33.410815073667194,-26.88017663394135,-53.9900110409414,1018.8491814013775
299,6.154190829083593,-4.908050656646897,5.914554852052917,0.0014460965288522452,0.0007005466084567611,-0.002907535213981776,0.006606187461827307,-0.03134857787204516,0.02776481835613177,-32.915436745043316,-24.92698475168586,-53.2372059181389,1018.8481922510512
300,6.145861259692418,-4.8981875020229895,5.918289766698056,0.0018391321130321065,0.002753873100779099,-0.0046408821395238775,-0.006972629015762089,-0.051830615904746094,0.012150500023301543,-32.228669601142236,-23.266931046355456,-52.26353134158237,1018.8458831580853
301,6.141109194308056,-4.959443033262227,5.8882282646864015,-0.003348811668370277,0.0007399831628995806,-0.0024737937629858396,-0.015363924351869718,-0.11637599563674497,-0.01697688961252298,-32.304879528521646,-23.489794841744256,-52.44389107652831,1018.8414774078743
302,6.145527507580765,-5.007277233972874,5.85668738577649,-0.003025770113942892,0.002146047974744724,-0.003325167314391148,-0.013219090074197087,-0.14521430263117022,-0.030494395865854493,-32.59867829947063,-23.990375511679645,-52.73742368609109,1018.833541729117
303,6.132811708901399,-5.0161340095545555,5.837194161110167,-0.005134555324973172,0.002250780007138039,-0.0009648071322119422,-0.014485982594010065,-0.11630884848996223,-0.030278071549208373,-32.21857185247724,-23.385788637461342,-52.25105981766157,1018.8235452119899
304,6.132747287294047,-5.007195537246537,5.848395407762273,-0.003546339818574575,0.003962251740412277,-0.0001747105500597316,0.0015857815195851402,-0.06966380078304582,-0.004127017584074532,-32.17279631538157,-23.115873663615705,-52.41534470469983,1018.8129928530838
305,6.119658583141529,-4.983349254029995,5.843468222617911,-0.0043594812856466315,-0.0007152071627229339,-7.55320469368569e-05,1.511314884843312e-05,-0.014986314719835171,0.005008590594361408,-32.64726822364376,-23.678125432040975,-52.63643736208415,1018.8016636218731
306,6.140733010579619,-4.976314647316702,5.8622698787647005,-0.0013319375544835537,0.0013049330240608925,-0.0009642409328986215,0.021444605888232188,0.004065641529406375,0.03345515773411588,-32.71135674036937,-24.20135275781408,-52.774278456128194,1018.7917462894886
307,6.1783977431895165,-4.953806126231665,5.858879031732515,-0.0023839021960745804,-0.00010652707780350857,0.0006532819528901584,0.05429546689493991,0.02643198462630475,0.03476474525565262,-31.87779520110245,-26.169427624409078,-43.665861754965405,1018.784508186053
308,6.196096453536267,-4.968938287981401,5.817872338125026,-0.0027890194984102005,-0.001588382039733815,-0.00014731817896779058,0.06490143426232299,0.026565277902261347,0.014319383224121487,-31.414560679340124,-24.370445423132434,-33.47686288091737,1018.7792255012228
309,6.224018656333062,-4.979805079878587,5.789051581773105,-0.0021485377820805807,-0.0011790607193745582,1.6948696799956738e-05,0.07735245807536624,0.023832666221409976,0.008930498053965697,-31.689758127981918,-26.575431142971667,-26.19107234835994,1018.7735766695803
310,6.227313499979011,-4.956278379602979,5.777686786212767,-7.804975346897185e-05,0.0010187564592007456,-0.00044984467843941947,0.07309215992647157,0.046651165990334365,0.004843610442112914,-30.172729967311973,-29.99545772375432,-22.02832418272247,1018.7679494049519
311,6.247796222702378,-4.926586735778535,5.792007555997826,-0.0011256646192250867,-0.002738574409719958,-0.00039801662955460306,0.08394155097281565,0.06821020525044391,0.022340669525295818,-28.719636966626325,-19.42195876461374,-18.705692267792102,1018.7617192231496
312,6.2708179112340225,-4.908691081772463,5.795965732036016,0.0009373985065238557,-0.0004226611185933981,0.0005567381317278045,0.09127004070509954,0.07397972919637237,0.03260216036724216,-28.893316179630215,-7.0650288618421015,-5.13290858804832,1018.7546782165924
313,6.312491149099194,-4.869748873702091,5.810440452482572,0.002093287385455925,-0.003891866305418545,-0.001082567475138811,0.10216316369761515,0.0805435829942055,0.05313317862486293,-20.363952664412615,7.700460265356174,12.004192521832024,1018.7470454346246
314,6.355386095156744,-4.847541334272604,5.812451454234385,0.0020955019773647374,-0.003539725998557926,-0.00014094756324943526,0.11038614186461121,0.08203642641706575,0.07434721982127726,-14.692072579434086,17.58052430440724,23.853034971348137,1018.7354974899316
315,6.348083239105764,-4.838155944051286,5.828280352117621,0.0008551100723122637,-0.001631430752277589,0.0019165691390622941,0.08240864530260769,0.07502449574085543,0.09866280558288204,-16.133488506268264,14.283170027307701,13.937682812655948,1018.7204531686031
316,6.301171141559775,-4.8681236659565394,5.825152686530413,0.002999840614699773,-0.00043744782586754784,0.0004889057817532433,0.03611705946995755,0.043629339999464424,0.09350607617964807,-20.04543915372978,6.545575527653732,-3.342118101352723,1018.7004248221306
317,6.271865428992835,-4.852370661801429,5.8551745397819595,0.0008424954819132979,-0.00030208776402390315,0.00299581573166919,0.01278386771784738,0.0440465914796722,0.1039608203557559,-22.869249512664076,0.7047365465829811,-15.713306981718354,1018.6757074678903
318,6.259764135015803,-4.816495787955606,5.893442706214126,0.0017740074921038407,-0.00033241016036532074,0.0018608831684302238,0.005986307082778946,0.061774140006855216,0.12114589494591366,-24.608119616124043,-3.3700319936281584,-24.51201355589722,1018.6471972161356
319,6.25478053577661,-4.842906387228055,5.888990467233839,-0.00022384409455601857,-0.004488266064302828,0.001968194276570783,-0.001205621332807885,0.03170372668943288,0.11585386421567405,-26.07632894989793,-6.094286437468885,-30.94243021361636,1018.6153416880223
320,6.234140724052175,-4.872375270551772,5.8576290366997235,0.0027716349433606928,-0.0011238376826672057,-0.00021454982869537412,-0.023270415154091624,0.0009743002757823388,0.08485997460969409,-26.926167469369517,-7.610020953035161,-35.65259335285593,1018.5806734361042
321,6.224347748970415,-4.8550862601504114,5.874028525632609,0.0014235149700762499,-0.0004396899824130868,0.0012543260800576546,-0.02504688535697521,0.004653701280140048,0.08114433231879464,-27.603725847209244,-8.214243841511339,-39.0533167553607,1018.5439318033172
322,6.211448315547703,-4.87231868485215,5.865313678268708,-0.0009596570276929324,-0.0015757441122627633,0.002557649756843406,-0.02677943982757495,-0.0127755842531882,0.060198475467449886,-28.2438592221997,-8.290686641565381,-41.64911880608279,1018.505985985089
323,6.212767962003884,-4.927085215264491,5.848271554401668,-0.00018428811283106958,-0.0017609796139615164,0.0005662148630835892,-0.016649085841053735,-0.0472416645804992,0.050755227000915705,-28.85538470960263,-8.287923947433173,-43.269054822122555,1018.4663986486107
324,6.188940974911616,-4.928016899414291,5.830630540973448,-3.75593363356458e-05,0.00014563110425520084,0.000853764537371239,-0.028862446995940157,-0.04160959644235638,0.02609906801534565,-28.958203385877972,-8.142930077456114,-44.10573962160699,1018.4254897988457
325,6.170664120474408,-4.919066197227919,5.8296555150964675,0.0012185991805224528,0.0023880537440425665,-4.5804824968024e-06,-0.03209964278083171,-0.03200593276934621,0.009601111747134187,-29.095171206628986,-7.90047855668123,-44.791507020431624,1018.3846262947372
326,6.172460952804186,-4.936686035069435,5.827016080986455,-0.001378793097201202,-0.001368908457101017,0.0006144991304678012,-0.0171978743019282,-0.041389173616332695,-7.918615979046577e-05,-29.305203809739968,-7.948545593675997,-45.56313309865581,1018.3447851979226
327,6.149815287240358,-4.925605676325204,5.780573274627159,0.0007033636132229384,0.0025244585380686723,0.0006317421282443809,-0.03332895321645882,-0.01445180497573597,-0.04010135336840698,-29.742531392350244,-7.972711193596017,-46.77460038903839,1018.3097920804851
328,6.113048409123627,-4.899591178122322,5.7658285424798335,0.002179953319002177,0.0047447567685901275,0.00024184715127156684,-0.04849910431363495,0.01751577960074245,-0.07261053950148774,-31.391090349876478,-7.103058419431016,-49.41155647706599,1018.2840464419064
329,6.119960958894707,-4.911576338207401,5.784497323752139,-0.001445198525002357,0.0003109464672681394,0.0020422544902799124,-0.02204855656923397,0.013040136744152657,-0.06811269240336011,-32.822352793247454,-10.099598953251713,-50.73627957603546,1018.2650500183287
330,6.132679809135594,-4.921833637713633,5.7762328042733335,-0.0007054708578630702,7.927868886011355e-05,0.001085157742429084,-0.005622417407795729,0.020060027683818045,-0.06734946310889171,-32.65821804261981,-12.070360900513807,-51.10192655104419,1018.2511855965838
331,6.159247593844376,-4.9500170307062055,5.773604618338365,0.0004682683727090086,0.0008315786597452219,0.00038443167162400486,0.020066432815182347,-0.006637649389743136,-0.06669355773137137,-32.532549574524204,-13.150475857782876,-51.27967504880112,1018.2456629021299
332,6.149361843193495,-4.916927234161421,5.785333673253345,0.0011529234862914324,0.0028625311287324663,0.0005704850371033093,0.01898194006975346,0.019500260038747858,-0.06997906603603973,-32.44927401738426,-14.069498244579064,-51.75338629901429,1018.2504128150872
333,6.133154698331558,-4.903082412543463,5.771974312505809,0.00043991578411983377,0.002304413560907601,0.0010687825616703948,0.009084700935733143,0.03890500819829505,-0.08526251389478258,-32.50737894809128,-14.163950575624146,-52.1313928456857,1018.264617948819
334,6.122616838011903,-4.910333610431192,5.779101019249647,0.000683006957990419,0.0031870551681637657,0.001283131367856778,0.01010714669558959,0.03405148587152537,-0.08814036203140425,-32.57130399084884,-14.845963985046886,-52.36960972419106,1018.2886299870695
335,6.107616840191752,-4.892870636843812,5.805404457135519,0.0014823640893664868,0.004068930386521519,0.0008455206325306654,0.009607452182671086,0.04938570272520261,-0.07859490107817606,-32.74852088299129,-16.0591366326831,-52.38506735023484,1018.3219640252331
336,6.139093285398256,-4.947934884347746,5.858739129215246,-0.00012473663360196155,0.00036736681209069075,0.0004086546985392306,0.046864258658613225,-0.0014494913720696223,-0.03010221478346585,-32.29850559386505,-17.21946277077925,-52.18763132792527,1018.363193908691
337,6.163376308912734,-4.939959618463872,5.889811673397895,0.0005129804286459412,0.0006345813961313063,-8.297564445289919e-05,0.06353864067161578,0.0017068499452785853,0.008733630600005544,-32.13443803714507,-17.721443186838044,-52.030119461414316,1018.4105369183957
338,6.176142167804669,-4.944614639869295,5.921500585543662,0.001019565040726502,0.00019677921159186155,-0.0006699776980606236,0.0699379540816034,-0.014339522171927788,0.03704809981678532,-32.00945908390641,-18.20152024548759,-52.04193315227866,1018.461393307014
339,6.179021308030749,-4.946451928682123,5.946150677885751,0.001062835365573796,-0.0006479888808291255,-0.0010236931946834918,0.06652559319945686,-0.02975392735285658,0.056569968661405026,-31.826219785536452,-18.552977001254135,-52.026185921512514,1018.5114750527853
340,6.201250906619191,-4.9457078102602825,5.946197651722383,-0.0020263670734008655,-0.00570854998070511,-0.00029777130615301717,0.06562852329052654,-0.03159173986951436,0.07867292774922004,-31.85381664545325,-19.181087655669437,-51.796416197802614,1018.5569517844505
341,6.1939951527677595,-4.967835821562743,5.921336670187838,-0.0003902205008892627,-0.0015665098319492844,-0.0009527870362812325,0.04007860047415576,-0.05362248141007339,0.0729391610455723,-31.87644912208336,-19.148912677417083,-51.70975658542419,1018.5955633789519
342,6.216972641607674,-4.9769296769076155,5.927245999074801,-0.0025119723282732015,-0.0029215368243442398,-0.0002534640115516445,0.04708904680456739,-0.06920999898502114,0.09008598438038304,-31.757391534439286,-19.24350254270784,-51.42514073632167,1018.625825635117
343,6.202574106811193,-5.018660308656664,5.866364368366696,-0.002749242465722996,-0.0029012961984918443,-0.0007438381116993377,0.019767094911857516,-0.08627236233675106,0.06401378532270288,-31.798852896707047,-19.028371191141066,-51.14166343855704,1018.647912354794
344,6.187401152423312,-5.007881967076246,5.84633947263635,-0.0010307075687847097,0.00013250356329304065,-0.0011334132088436514,0.003096376630086377,-0.06568666558293285,0.0536986137419479,-31.76829690254038,-19.02407287539469,-50.97066788309773,1018.6633931554312
345,6.171962243802989,-5.041801429134955,5.821042780209418,-0.0009993184934726088,0.000716807824668224,-0.0015911157441218771,-0.006947205521015945,-0.08585236900554928,0.034225639517093634,-31.704969287975945,-18.958472932125634,-50.88135634675308,1018.6740526670923
346,6.156597747328536,-5.020907795762195,5.820664618232252,-0.0007345608613169056,0.0011230323994802214,-0.0021567135938486597,-0.01587545938606364,-0.06600684153619467,0.02591792319573761,-31.571314979522114,-18.961512180938314,-50.84155534230467,1018.679379697215
347,6.162041028236773,-5.015223419413139,5.816572763154184,-0.00014567549883581234,0.0021342039732512685,-0.0019785471247992766,-0.01290756586035046,-0.05167036072205758,0.03180499998120539,-31.687835928852408,-18.83664563737789,-50.84512673796719,1018.6815983018262
348,6.229333473469965,-4.984556212528589,5.81471117243551,-0.001123202107894643,-0.003189672549485993,-0.0015691521539847207,0.04082145669205826,-0.02402777596449095,0.041890049520386385,-27.74779431567456,-13.049079532973098,-32.49060337778482,1018.6810119813063
349,6.265225424113793,-4.976307490635148,5.758497547203236,-0.0021355791083132714,-0.0008709946380589411,0.00040905478173945903,0.05660460542546395,-0.011445783768336512,0.011196885942717352,-23.982949484134352,-6.900418983154912,-13.464853752000938,1018.6776366546453
350,6.252496461161759,-4.9873825378422625,5.710038440558435,-0.0034545614958469274,-0.0033224370163183314,-0.000338097684605881,0.04150678327788829,-0.016440020008649525,-0.029513779240095905,-21.288778829612816,-2.8324398187753967,-0.07444244938350764,1018.6727204452014
351,6.326639939486908,-4.951186134997962,5.7391093297156,0.0008289947004089374,-0.0005337258600252547,-0.00179904006078925,0.0918365353492418,0.008211449644084965,0.01552013524601309,-19.193356423112057,-0.7221960071210742,10.028918396537385,1018.6664529709683
352,6.295464106898983,-4.967389859652146,5.679312794691529,0.0004973171574005088,-0.0006125453701535667,-0.001410142632250558,0.0515571250067285,-0.004594274835152488,-0.03141608207611016,-17.681739392664294,1.429627437020693,17.109429032287835,1018.6585808969536
353,6.3194495969201,-4.951375989742352,5.697985258146617,-0.0019072893097588485,0.0005226269706428227,0.0016628610314244666,0.0683781537407956,-0.003717542169864612,-0.015971815548889986,-16.830095077419692,2.690230031177213,21.789849538281832,1018.6485894674523
354,6.30282211293228,-4.954281025076778,5.70773235065158,0.0005977341294650851,0.004147404550678479,0.0005746632602928422,0.054232916974726667,-0.002621923776286816,-0.007620228279818333,-17.406939182880965,1.4015597225132268,19.32781798800056,1018.6382674827802
355,6.276113844762905,-4.965665371174915,5.755616667219495,-0.00038205989479206414,0.0009539064502517396,0.00023859516298853145,0.04739891121992425,-0.011422702855744666,0.02088839180508012,-19.50064971647765,-1.2395100852530248,8.10502137476802,1018.6256637546016
356,6.252548739808472,-4.971616552048984,5.729142236906955,-0.001970802756207019,0.0003529485211385536,0.0010622978401865445,0.02397391585467235,-0.007528412678617183,0.0031435668721339904,-20.634576085266467,-2.557853661677772,2.3972360264312504,1018.6128992100428
357,6.247675672470137,-4.974752119204643,5.739821818008205,-0.00015998179557017746,0.00124637496252977,0.00011738706035788974,0.024896228588408533,-0.011311536491176282,0.004604744811187852,-21.08828105799725,-3.1382169413943277,-2.2504986964421745,1018.6001615580649
358,6.2030369033584,-4.944235740469977,5.726288702279872,0.0020032761656423935,0.002980698282030447,-0.0012030976110080282,-0.006077985333298192,0.017726397126225403,-0.022919586981876156,-23.568324945896684,-3.355112956390849,-6.435099686882685,1018.5891130988595
359,6.2000615966027155,-4.969496757368012,5.727157182628715,-0.0041492012476538505,0.0004748612024602474,0.0029804668986765604,0.00030718954291637877,0.00926652838927167,-0.02024798123316062,-23.858075174261696,-3.4298409239784093,-8.279458308524923,1018.5802867985539
360,6.1980728732781785,-5.003264715360658,5.713732706265761,-0.003701982232783991,0.0003052533219371044,0.001438326408235213,0.005541290877517778,-0.012539642414059742,-0.028116807315738863,-24.11662148472323,-4.159367237322569,-9.738904940086083,1018.5738449781037
361,6.172776764771792,-5.098881896261049,5.667911573499096,-0.0016302415949196653,0.003557603743750242,-0.0004450827969499239,-0.0034271373497597995,-0.07188647572177696,-0.05863046674743516,-24.158070669947215,-3.6009946763873275,-10.578279564276185,1018.5691434554639
362,6.1073371523278235,-5.117601630443614,5.6259932852328784,-0.004868081992686202,0.0038649978337849437,0.0009347247862390381,-0.04307322524434546,-0.05698031163381344,-0.09998566629930634,-24.281426399341573,-3.4136829633563557,-11.63865085981043,1018.5687832141871
363,6.1613200488194995,-5.173087977264022,5.673241098139438,0.000889722696156026,0.003013647626971255,-0.006111502309316878,0.017793520461214254,-0.10408396955173801,-0.049179907135054,-24.081186049140832,-3.507164380435379,-11.928320380461722,1018.5721890156861
364,6.153915449755523,-5.146246375151865,5.682771123142178,-0.0016147163780937026,0.0037558351867658475,-0.0024120816321153665,0.011256264877090406,-0.07836494271292208,-0.04431711322542328,-24.32876520163577,-3.7010270108033003,-12.566107048150261,1018.5789412958079
365,6.169893144546982,-5.076997500641351,5.742034836078027,-0.0014696402006077716,0.0016994524343873006,-0.002078452376866827,0.03172517726262043,-0.02089333605010321,-0.0012124629787498703,-24.715597399356973,-4.556339547870226,-13.513941963198548,1018.5879298533749
366,6.18914321198006,-5.059653292098496,5.740131906716822,0.0037421101378140634,0.0022779764236200623,-0.004478941757289377,0.03920521057587488,-0.0020256203779908805,0.011082086652023542,-24.726763722092457,-4.791090795484327,-13.879685060188883,1018.5985300122718
367,6.224075628147313,-4.954069175024697,5.813032555315623,-0.0009793130766375326,-0.0012116924237841019,0.0017536210244896953,0.06604088991201924,0.07346779238216894,0.06600580021727777,-25.10584575392234,-5.5544162781201445,-14.646736810382308,1018.6096880008192
368,6.267731052283997,-4.869186512486288,5.844151202781008,0.0032810791157123465,-0.00226941722876062,-0.0009727085600124675,0.09228079037695636,0.12329228660018968,0.08537478722468311,-24.54940513580931,-6.024974986307879,-7.354092993857364,1018.6196040843547
369,6.275231507152935,-4.853641351259535,5.814575979977785,0.0014660473072978827,-0.0034320985335784,0.0014237311078887371,0.07957093141099891,0.12012816527329673,0.061615848344003354,-23.527983664346774,-5.448782272884643,-0.9392739415462099,1018.6280367175631
370,6.273745248720282,-4.829927036020655,5.868600925908331,0.0007012299172172907,-0.00045031748414250906,0.003405026247797507,0.0698767255325418,0.10845419347960408,0.09355935021482933,-25.02517162583774,-6.576653313688104,-11.757927865452352,1018.6341912225278
371,6.2494580378085125,-4.856800884409249,5.900678016715831,0.0043489759959809676,0.0003561894319887597,-0.0005489016174628956,0.052869181322044836,0.059588338884139266,0.10119464856422793,-26.139215503957416,-7.813550984345593,-21.662029392407497,1018.6356119139288
372,6.203512789128616,-4.873524800665507,5.881576215203893,0.0016250688299747121,0.0007765706323320438,0.0013300217096211125,0.013313752112190803,0.03522996560939734,0.06618680727691403,-27.26979638327919,-8.434473179224604,-29.309360943987247,1018.6298884076767
373,6.181199424662573,-4.91146058009346,5.880788991812676,-0.0005363065636185471,-0.00023095231278315938,0.0026656647083119697,0.003696745580946948,-0.004138184664230708,0.05346065876114929,-28.143904434623412,-8.139715363261503,-34.58782962909149,1018.62041391919
374,6.157304939889303,-4.923536389530148,5.879874074528838,0.00022910394139445775,-0.0005560385943144858,0.0009620463502430007,-0.004866529400881144,-0.009525673039831558,0.040834629043075624,-28.838224115220264,-8.654279734819038,-38.568863857315776,1018.6073980848896
375,6.135370610391287,-4.933046391016239,5.883028522001736,0.0008935084429661227,0.0010953537709375584,0.0005359995919061546,-0.015507993432601345,-0.01765485891926369,0.03307080007074405,-29.260844810593653,-9.087991439545924,-41.35170672941006,1018.5929106649384
376,6.126625690086528,-4.947440176465458,5.888440560972248,-0.0008637294695859352,-0.0009528344408570237,0.0006835898331668331,-0.014036646050783495,-0.028267708468277686,0.030150712145507526,-29.72356500265741,-9.727797399015893,-43.76150261789963,1018.5820588505827
377,6.137473657346199,-4.9693695042603645,5.8886692761040225,0.0005160546509424518,-0.0003369219895849122,-0.0003196623557983444,-0.0016376745917503002,-0.04295913050597508,0.03742457986327232,-30.30774930133735,-11.185523624681723,-45.66617986188039,1018.5738604603871
378,6.1537473636144835,-4.978072761119608,5.9019708993476305,-0.0008555538188089664,-0.0013158346056751143,0.00013311707307519317,0.014642393491834098,-0.04899728608970883,0.050568138035760435,-30.681785481268527,-12.802856554540602,-47.12828492135088,1018.5678769162301
379,6.12077079914129,-4.965080943719907,5.862007417413919,0.0006298588747069283,0.002324934593126908,-2.862354157770895e-05,-0.017588155376254182,-0.028917968913304903,0.01576875727794458,-30.800298821113163,-12.966114274302699,-47.699632163898976,1018.5664986018681
380,6.124781840210583,-4.945337951459859,5.88728051409736,-9.097903170812824e-05,0.000495330951781199,0.00032788225297243384,-0.0017983443417908217,-0.012591241164248111,0.026700303854033075,-30.749736360424794,-13.853430677690854,-48.293715659940254,1018.5701096173539
381,6.111090323400876,-4.9866492059075265,5.861817702583057,-0.0004036093157707813,-0.0009650044331420858,-0.0003601341082060609,-0.0072780741615067,-0.03515542830089266,0.008340427674746027,-30.824781868906367,-14.701536514476798,-49.030267577703334,1018.5772999283071
382,6.11080390471415,-4.975255827886317,5.86591786988275,-0.0011708567551041887,0.0007456544258492488,0.0007830620654137241,-0.004014465000221089,-0.027230034099841725,0.007047517872991147,-32.34437507370089,-15.166073967156448,-51.05713762156767,1018.5868556430455
383,6.115289062167514,-4.963403617230582,5.894575581609613,0.001872136341182981,0.002453015348302788,-0.0012271698980765734,0.00782872915061559,-0.018669975393637114,0.025927782849595942,-32.22995844025864,-15.68755928830862,-51.03706878111999,1018.5985086575218
384,6.117389785689934,-4.984745594157019,5.899093083024984,-0.0014078931226719027,-0.0011394365718324796,0.00021527989919173937,0.01373125560055688,-0.028785445272971964,0.033052157703960056,-31.79861170273251,-16.403552456892918,-50.649707497820174,1018.6091774890075
385,6.126295588646584,-4.97336365441306,5.909491466145998,9.316243715499009e-05,0.0018664082568828917,9.60453813323482e-05,0.022917517345796015,-0.014361678075660697,0.04530000113331927,-31.546002467565398,-16.982367381076884,-50.569021865040966,1018.6170054032942
386,6.1088410846305905,-4.991453567400974,5.896449155095241,-0.00018787713273279706,0.0008669833593693713,-0.00026788443327399955,0.013989248019870958,-0.024506504023404336,0.030294076072426193,-31.396652211690967,-17.21563523427788,-50.54711801951829,1018.6227185579105
387,6.093339207728282,-5.025536016905502,5.885806091763671,-0.001730626438322578,0.0003335899474079312,1.4732436240204219e-05,0.008161890233685593,-0.05017483532479633,0.018504741527342675,-31.04947040031653,-17.4528681955409,-50.35164882680643,1018.6252395049568
388,6.082687936108321,-5.044053949103048,5.853449731763021,-0.0016595991859519636,0.0007737189254168448,-0.0006984534397135489,-0.0025661691136724795,-0.04757769506657182,0.0032497948261868536,-31.108578343432374,-17.395605343063256,-50.570757475588266,1018.6261311541949
389,6.073735488788643,-5.075426217602819,5.816171660209039,-0.0039628940513652955,-0.0011201587144990506,-2.841452957428204e-05,-0.0036860413658352936,-0.060960992640226114,-0.02702433978264851,-30.613500306306836,-16.82123029305045,-43.9709245225026,1018.6259163383497
390,6.121834337226474,-5.121167254766851,5.74386088030462,-0.0025064616066544296,-0.0010711585546058146,-0.0021526904293331615,0.022955448965371588,-0.08934139465080271,-0.06171211529247998,-28.599161424080435,-15.17464733581942,-26.872708153611985,1018.6247289103912
391,6.177732081648301,-5.14888955930803,5.708516278915089,-0.005147101088749365,-0.0046860114474261355,-0.0017026085449408294,0.05596258470567238,-0.09774576705227545,-0.055634482744389965,-27.54654070209413,-15.569167999999705,-15.44042323129757,1018.622110310438
392,6.233602061953647,-5.151421404170117,5.699633589763707,-0.003417383795981768,0.00038470848556874417,-0.0013745805142250087,0.08755164529330736,-0.08817345904446003,-0.027876089504062566,-26.9436307744693,-16.43898730372566,-7.467628036351266,1018.6193438269617
393,6.201382180236519,-5.112055099978349,5.694582166806582,0.0012648644480550454,0.003760612860009604,-0.003687878571794088,0.06127361715613443,-0.04767764659821159,-0.03992280132714271,-26.606851068265442,-16.55730465058768,-1.554248971234994,1018.6164694116147
394,6.22531856525656,-5.065017008726913,5.714979650707301,-0.002481056338327196,0.0001717453878165168,-4.392481853729381e-05,0.07407854042702139,-0.012362608022346462,-0.017836013234797318,-26.476486385088716,-17.234787936342162,2.5626087626882423,1018.6112590677122
395,6.2328666534062,-5.069973317102861,5.70692682733941,-0.0005436758755689836,-0.0006027007144281421,-0.0022323195353120794,0.06762184999961637,-0.021166557308175567,-0.014206666421372542,-26.56707119532758,-17.802007495090486,4.878569479340612,1018.6017676512276
396,6.21615254501035,-5.054428063407966,5.750631387460824,0.00026039993715604377,0.0048170818415336205,0.00042625987094177704,0.04887101221081912,-0.014628663452616108,0.023827946727254787,-26.719012884926308,-16.78774803977372,-6.7279961595087805,1018.5887807960336
397,6.1345728938183655,-5.068057791542727,5.753411757193683,-0.0007937327432456842,0.0027253484671083067,0.0016903519788183242,-0.008911277710114865,-0.02540969455467476,0.003770630965773021,-28.298337259658364,-14.932598674420117,-19.172689309671263,1018.5732425464544
398,6.126193107143565,-5.028706576085281,5.82361281954852,0.00037741646708523474,0.0014729413192645026,0.00043112791073635103,-0.0026715089012520595,0.0014247439750557055,0.047652722401005494,-30.32680259340922,-14.789513655005726,-28.564644594912842,1018.5541523504269
399,6.103768795774086,-5.027324137044367,5.8568652553374845,-0.0003199108153806359,0.0020741898683768016,0.0018157818880547316,-0.0045230046162507784,0.01863871536766103,0.07240728626339896,-28.93933959929234,-13.391636978344902,-32.62473699634178,1018.5341804174818
400,6.08511706861723,-5.034046711712322,5.865646980504049,-0.00245099058847456,-0.0008406868725442085,0.004015051363512892,-0.002433081712049092,0.03364938309361082,0.07920085842858016,-28.23520333760071,-12.376687507425942,-35.65506728774531,1018.5155846421648
401,6.078774256965221,-5.035975650387044,5.881281190737436,-0.00111847474975484,-0.0023582462826085447,0.0041669755647974335,0.010306471445530029,0.053910201645642974,0.09418170723354656,-27.718205383541164,-11.906927825821864,-38.21421611676443,1018.4961386245494
402,6.071825394873953,-5.040689794570854,5.892549375521278,0.0011226190203336257,-0.00022363463892164075,0.0049130723696713275,0.019552766591473515,0.06748176136915159,0.10450018429400934,-27.32923844705208,-10.00894945479886,-40.31022867859764,1018.4760923245902
403,6.071993940446346,-4.9855701784338695,5.938575274321485,-0.0011010421391602647,-0.00430677528467673,0.00801104546625174,0.0407309759787606,0.13344526737585277,0.13815188098345596,-27.209971458982416,-8.141043865410438,-41.18857032499686,1018.4551545901677
404,6.069437441859304,-4.992543881561964,5.935211097478816,0.0015680158826368144,-0.0047670436685621955,0.0065648483885827735,0.047689692779518074,0.15265091809607872,0.14809191828438414,-27.25172435564086,-6.578449023383001,-41.88548049855831,1018.4328859944981
405,6.06742793030155,-4.946926544813727,5.964539970973628,0.004000953763096522,-0.0030640250584782055,0.006921218268512886,0.05284840537078741,0.18928782709518754,0.1619064878544317,-27.153321558064125,-5.65050234918965,-42.28726026873701,1018.4092959555638
406,6.063462661377024,-4.9726552022269646,5.959423236636559,0.005513184599493924,-0.005237204813227595,0.00659077841445121,0.05182911409323788,0.15223620745401129,0.14365247453757235,-26.83827577823847,-5.03952343197783,-42.36871330267057,1018.3854833184294
407,6.050424022232488,-4.941457360660818,5.952270078270615,0.00519584868644291,-0.00603296975867712,0.007492669451553792,0.03624243409670588,0.1640081915797022,0.12203331754622834,-26.971801766323985,-3.565721557657384,-42.6943711040713,1018.3622500683389
408,6.056405824238607,-4.930358602681562,5.966127860813293,0.0051894541437774696,-0.005310398029744852,0.008247136810780665,0.04129268503562472,0.16199317459038348,0.12528302977646447,-27.034794874692206,-2.1634801713393106,-42.92994980802429,1018.3426037498369
409,6.049843278659329,-4.957267386558185,5.954009947020495,0.007214258693504578,-0.005025968586534551,0.006699588189797786,0.03903930116734667,0.12506790310874752,0.09994854224541007,-26.95444649928919,-0.9900743268399439,-42.90216163213385,1018.3255753310733
410,6.054106395666303,-4.954553347005158,5.969759350550625,0.005757971253888724,-0.005685046828578866,0.008248184046159087,0.04398127483720817,0.10532271226306854,0.09566000640284131,-26.82086977772369,-0.12084389721914723,-42.772997543351885,1018.3080974855047
411,6.054800176470055,-4.9393976004273386,5.978639758045012,0.006577657708535608,-0.006744300983711718,0.007194716285358252,0.043799114492369874,0.10146139949710485,0.08910082580935307,-26.517438199801703,1.2190323447539888,-42.45118838856338,1018.2904150899632
412,6.061721989663569,-4.941329217599588,5.972775136523398,0.00939661769906867,-0.0075358106598427625,0.004457471204595049,0.03949288214093841,0.07407752942983874,0.07308897254354714,-25.990897782677067,3.005751593161307,-42.327805445385394,1018.2740881749946
413,6.073525583836826,-4.88999801208534,5.976425033065263,0.008626205552588943,-0.007349067108247885,0.005710587395622912,0.02951473666922437,0.08243834454549398,0.06304894205604197,-26.7948820383715,4.259757889937519,-42.30640088459611,1018.2595958678891
414,6.08656442729136,-4.880767378631271,5.971919801579091,0.010281554278073474,-0.006490099524412919,0.004201803017847928,0.022660207948743873,0.05582761888530953,0.049040014525699865,-26.6230214929129,4.510197345883739,-41.74644867627957,1018.2464836016802
415,6.104828583725964,-4.860421812214737,5.98746347717756,0.010958436642686432,-0.005030567638668331,0.0030311856819069324,0.022344976461187886,0.024622193169038138,0.04141852585313786,-26.404541822121008,4.585925897486019,-41.48959721076661,1018.2358830496911
416,6.105110340750365,-4.853850996384914,5.9808292092898965,0.009594162871464628,-0.005819838011978574,0.002504748461310658,0.005378389420921469,-0.0169435619625187,0.013733669342341288,-25.95568922602114,4.536005596231712,-41.19919521694167,1018.2280431029982
417,6.140289603605689,-4.8371278119942165,6.002691953357033,0.009616048309481122,-0.005671948381960856,0.0009875821605019454,0.016493055148040225,-0.04912324622154887,0.020110766994706552,-27.458160141275535,6.364180652306386,-42.815779889072836,1018.2223211666052
418,6.154121905604734,-4.80802775324076,6.008725336611644,0.0088002177601377,-0.00431707449673695,0.0007820285415792163,0.008220215252591184,-0.06650725078283956,0.012276310437461833,-28.059946776777657,5.620055725589898,-42.78942452656803,1018.2178978539388
419,6.151813771624885,-4.802575156014657,6.003015694294748,0.008584222177241757,-0.002348550587626464,0.0008105119947320555,-0.006008125810531197,-0.09941257967641406,-0.010555003346289428,-29.275432932655683,4.595785467475136,-43.6533395151245,1018.2146695266663
420,6.138444652140259,-4.800969400913425,5.999382346609795,0.005524802041550301,-0.0019753309909104916,0.002870272323771678,-0.022621997267048576,-0.11725861827913044,-0.025874509328043506,-30.202516611514568,2.131011629068783,-46.67262193320559,1018.2107261843156
421,6.040999762266876,-4.785550457262267,6.123448869245771,0.009668201215193257,0.007083597463214252,0.0017176065414831962,-0.07783279280404704,-0.12971791983656641,0.03498758364887527,-31.02999875387763,-10.833499906539242,-63.30367202255047,1018.2069001822491
422,5.954248462991577,-4.7841102612987,6.200976566853002,0.00665832135371427,0.0022278963149964266,0.0024059316034631692,-0.11596529476739874,-0.13734011113286385,0.05581994064465886,-29.927776779510346,-12.764845417672207,-59.75097802191529,1018.2034070131939
423,5.961021408673526,-4.785618144506462,6.247955332652372,0.005229454506251386,-0.0020988997196004734,0.002271051585748838,-0.08886474185135465,-0.14481601080473858,0.07837026143892022,-28.198983222770202,-9.920721001955835,-51.599413463550285,1018.1973741512621
424,5.960631461195344,-4.797027459670997,6.221682967198704,0.0013122542390086988,-0.004327091897359624,0.00504754814655085,-0.07830543420183493,-0.13147560799272742,0.05922468169189303,-26.80517724542806,-6.918097375043063,-46.33953904309838,1018.191023278169
425,6.023601263740623,-4.844443950120134,6.209008463615073,-0.004034695817276163,-0.01179592608743589,0.006992205141952042,-0.019253161009550115,-0.12860701217772338,0.08921727155354439,-25.839333188144536,-4.171199060758143,-42.36451418564695,1018.1844403066052
426,6.0687174359520695,-4.878364729967375,6.15198059594058,-0.0029945035809034208,-0.010054268348059241,0.008367872919769486,0.011159185790061785,-0.09267261489842343,0.10179680295044619,-24.850267289173733,-3.1766886322851304,-39.02121513898977,1018.1737204252869
427,6.062547369376206,-4.911316145298264,6.051936911883033,0.00017991916489559648,-0.009248089442550522,0.007502681004421589,-0.004571974822332292,-0.05111426052506316,0.06715535250502422,-23.91098622494581,-1.7892176494055958,-37.16382953278147,1018.157363432389
428,6.102410446139851,-4.8959785074585,6.047204436511497,2.2130411798395927e-05,-0.008248320660564417,0.010437246807617496,0.03181439636072913,0.002123057724389983,0.1061425209630161,-23.564081353521022,1.5317502350153527,-35.264951178182386,1018.1340893579237
429,6.107576308963944,-4.93149348041459,5.992766978090193,0.0007836061779662795,-0.010467002621186876,0.009844627349191072,0.03334226719153718,0.0247716385442286,0.10191195244055663,-23.57777072650838,3.0272277807344032,-34.38931304362466,1018.1042621243442
430,6.1246939896576365,-4.923473126649762,5.979969544944152,0.004060573622834625,-0.007315330862560228,0.010527478645075637,0.04715853614987011,0.0581449436501844,0.1147289286961746,-23.498438135053664,4.35956545742744,-33.757655536000435,1018.0682092039652
431,6.10456804399244,-4.917574229214176,5.9544795639636705,0.0069264676264840525,-0.006810192810736688,0.009411543210971393,0.031285620790010044,0.07221206498596028,0.08849176711674983,-23.55510621329169,4.84717443078122,-33.93618876818856,1018.0296737966452
432,6.102190566510763,-4.919641485440446,5.951196624639277,0.006831287223755535,-0.008075787830081116,0.009657175872783426,0.03343791295045462,0.06727633526874138,0.07796694462445189,-24.02705521203336,6.016061138136853,-34.191942692842325,1017.9888729693724
433,6.098765856822206,-4.9035614749660885,5.92545504460811,0.007668205168961521,-0.007967045083667098,0.00979550056565502,0.02241391827394633,0.08400831587399174,0.058437876545497425,-24.745278418804382,7.0401267836750705,-34.6764700339584,1017.9468723316994
434,6.103005973771327,-4.925289131191888,5.913198665373323,0.009957475481206405,-0.007384751111199572,0.008383055540247935,0.02492190478176251,0.05245808329793173,0.04052657908288142,-25.258222486105613,8.782652480137902,-35.451603159594576,1017.9059538419262
435,6.109886527583971,-4.903339380474193,5.928449087680501,0.00818819062568451,-0.00721934711598366,0.010545176987711125,0.031977796322855315,0.06229511371512296,0.045295367174807234,-25.829331758162745,10.500179844521746,-35.528105380798316,1017.8674123188204
436,6.103055487154818,-4.9067538281912535,5.916081023297894,0.008573696589442946,-0.008457736833494576,0.009641756519969593,0.025269717514083186,0.055777606527949594,0.029205915090545237,-26.31178713034397,12.395293151038612,-35.98168530110069,1017.8311005362514
437,6.094819380771336,-4.930674646729198,5.885342387903238,0.009960774138346912,-0.006400114170063578,0.009220531565635376,0.014819638561136517,0.037350316790766336,0.006223804336341711,-26.33841888134379,12.64059602205358,-35.63077503807068,1017.8003730939977
438,6.108040086799468,-4.905122356084582,5.910440251336624,0.00991402657632169,-0.006865235880017062,0.009857810455546488,0.027288808455614634,0.04834264371200281,0.016123845826464193,-26.43063969934119,12.077153092251608,-35.88196172604439,1017.775968237048
439,6.0815294530637045,-4.907916010553632,5.894347261840265,0.00970059298950574,-0.006631880030423191,0.00943118402353089,0.008726721466907696,0.042127951625677826,-0.00934405041513968,-26.112009765164064,11.790307460697445,-36.24156161631242,1017.7581565038031
440,6.087047789269117,-4.913610658026866,5.895160734137409,0.00891616994386289,-0.007735762415596758,0.010065532168691653,0.012046652710140103,0.032483181544834844,-0.010504573837680522,-26.22351741782479,11.951985881782564,-36.20214038472627,1017.745713242735
441,6.108598486502464,-4.924917344828504,5.909894460702966,0.007332650126332054,-0.007826544383437342,0.011707068938328598,0.03446917637962289,0.027582861544395466,0.008174433209408135,-26.466302020798533,12.221008934936876,-36.60118615537672,1017.7371881277368
442,6.071282040901285,-4.9486787547496744,5.865624398986484,0.008246560214793575,-0.0060178746601112065,0.01151087400886427,0.009433159230252858,0.03351404821716638,-0.023327700948724942,-26.212084311458877,11.921640133550628,-36.17575683692379,1017.7344081858078
443,6.059995330911997,-4.9734940617969,5.866061945141748,0.00835195734224411,-0.006820438400924219,0.011601128650721118,0.013235980245129748,0.024610511110720427,-0.024955599068462182,-25.13915613981548,12.426119886519603,-35.078022728078736,1017.7356565274657
444,6.025734075046663,-4.956772597558909,5.838789525346752,0.008322150816196569,-0.006284444647100034,0.011555594223428684,-0.006438064210885695,0.06397078161105757,-0.04407559956141076,-24.04260822376349,12.449434461580772,-34.69006488065601,1017.7434517424612
445,6.032587018636364,-5.017343915724127,5.860776029147874,0.008952333801988961,-0.005363991950718025,0.010851985953695116,0.022027156116416105,0.02233934766194004,-0.030070966458055882,-23.433459771161917,10.295032700818986,-33.649561619923205,1017.7579421807731
446,6.03708310518844,-5.022936801206501,5.878088493641743,0.009988383653185674,-0.006120130016422171,0.009879926397633815,0.040497023031201625,0.023658958593665746,-0.019707542796459164,-22.678097340412954,8.84634068540078,-33.17749368965998,1017.7796891666793
447,6.035088830033334,-5.038556885792181,5.8733632806044405,0.0070583096308341736,-0.009504183821409109,0.010955789654674369,0.044050063601921256,0.020784722807344527,-0.019728892071059004,-21.85408067204737,8.194483796764398,-32.601539796226675,1017.8091645151461
448,6.030787200115299,-5.033794312957581,5.856164429615951,0.010622278166631284,-0.006726579379124031,0.009497666711399252,0.03817387867792388,0.03565509832092978,-0.027123319611843406,-21.16092989052352,7.7803307289304335,-32.07984730854358,1017.8476194917988
449,6.020895930413199,-5.030867544984999,5.870897993818018,0.00820926243371024,-0.0075968487120350306,0.011110618616173525,0.03645438436015974,0.043113987437032,-0.01660810182586974,-20.62579645863871,7.766234086319306,-31.70141939432305,1017.8927311238194
450,6.032686027890795,-5.061210059815828,5.88598779315104,0.010430897078911709,-0.00721314600785036,0.008564614098617673,0.049791366345994216,0.016375962036282474,-0.00034656638480070126,-20.51674588255958,7.693784695694923,-31.5949635945053,1017.9439170475197
451,6.026911273453281,-5.094313458957664,5.872773088985005,0.005725360162733893,-0.011315434149375522,0.011024519925774884,0.04173517958317611,0.001975425081445433,0.00533076801456126,-20.308690840263306,7.924844967657148,-31.38024520026778,1017.9999898475494
452,6.049698759412308,-5.121277832862849,5.879881628064209,0.008918574374584223,-0.008958711854423856,0.008522439649564744,0.05149384271385183,-0.020582832209079426,0.029934746175386995,-20.259680783091493,8.109293528520313,-31.11316060771997,1018.0594645086222
453,6.068459699030985,-5.098964662575733,5.914875210185025,0.0099274713071919,-0.00820257134452464,0.007453407010005279,0.05867282379948735,-0.01109770612167655,0.06411154179367626,-20.086999494113655,8.364126912817747,-31.013387924924082,1018.1192988391763
454,6.079071486500497,-5.113250798398466,5.936459233165755,0.01257632715552439,-0.007742805615743142,0.005626302032747514,0.06286716911248628,-0.04190855583075491,0.07897464675799269,-19.96686391382307,8.73394139944777,-30.972532111331383,1018.1797873987744
455,6.042396247521237,-5.043331760868384,5.9328118303631685,0.007296626331210984,-0.009644997394759528,0.010535448015010197,0.01979142357073721,0.009867958161417126,0.06762629431511671,-19.871994120054797,9.297811356339375,-31.050628410028338,1018.2382593612281
456,6.078030994254734,-5.072851284941509,5.946856095305792,0.007513722050406985,-0.01115884714149281,0.008841484739048121,0.03934583064701595,-0.01844860332059236,0.09730930028419701,-19.79988690647886,9.721174916110378,-30.89392539213398,1018.2876746169784
457,6.063700553366948,-5.092937683692605,5.91573677230339,0.009051581166413653,-0.008171280018636913,0.009233473044956931,0.016634356565814842,-0.03239339635412568,0.08086508069344099,-19.55218652969934,10.212122773205856,-30.730753882332756,1018.3304798916002
458,6.068358537339073,-5.090002411684806,5.9331804765087375,0.008795292879004709,-0.009678672975850863,0.008716214120832521,0.018178514080709446,-0.035315856469377106,0.09610297219203294,-19.378419740632896,10.63479836167786,-30.674463946502904,1018.37272748961
459,6.061255299193716,-5.081425463718898,5.925291950937035,0.009888561719857388,-0.0086020534830939,0.008561403216642905,0.005658027512006277,-0.03174068852715,0.08879520605468846,-19.246055290998104,11.058212334388825,-30.62411771630982,1018.4142795439744
460,6.055808189285235,-5.061205163348834,5.9525346767184235,0.009787492894132934,-0.00820849803848808,0.008673958639208005,0.0025541523527882726,-0.023994908742363277,0.10411204195017029,-19.080761952570956,11.351399172487197,-30.48393560268646,1018.4519024317065
461,6.05505566517355,-5.078881469171268,5.94536450275208,0.008819481381398563,-0.010424531380007786,0.008439828504486255,-0.0008701514768077638,-0.04278663464662483,0.0976810453867348,-18.931715805329134,11.648865293816161,-30.369175095402646,1018.4855654000147
462,6.045667209689356,-5.058866407849817,5.928140323395557,0.0087569087804068,-0.00839651652494419,0.009623353965632611,-0.015239262420770058,-0.024799461781508485,0.08507374591003665,-18.782871429628877,11.78346260920897,-30.31625792296822,1018.5154310611707
463,6.048518927243215,-5.065587055174468,5.951520743112639,0.010747207421988397,-0.0077831645068417695,0.007737253426673762,-0.006097791237759402,-0.038874975315912844,0.09388523500472015,-18.61932360932678,11.929770487186397,-30.27200871619683,1018.5420100933939
