Time (s),Accelerometer_X (m/s^2)_kalman,Accelerometer_Y (m/s^2)_kalman,Accelerometer_Z (m/s^2)_kalman,Gyroscope_X (rad/s)_kalman,Gyroscope_Y (rad/s)_kalman,Gyroscope_Z (rad/s)_kalman,Linear Accelerometer_X (m/s^2)_kalman,Linear Accelerometer_Y (m/s^2)_kalman,Linear Accelerometer_Z (m/s^2)_kalman,Magnetometer_X (µT)_kalman,Magnetometer_Y (µT)_kalman,Magnetometer_Z (µT)_kalman,Barometer_X (hPa)_kalman
11,8.5711791412,4.5835045531,0.0917262542662,-0.043926749590806,0.0283412849857,0.0031453787413779,-0.15510882062272,0.11305890841756,-0.17920186454448,-6.3351708985,9.27909900662,23.9261256022,1018.492889
12,8.188235455190028,5.2562030766568535,0.6105366831132885,0.09662638394166342,0.09308289132557139,-0.08075384487638151,-0.44011619660233703,0.6775611114089335,0.09622815182670724,-5.710772052410189,10.09258539105278,25.429261195209495,1018.4933424698319
13,8.342228013274008,4.965661446263811,0.6008317744293913,0.10139636261604294,0.10127086635459592,0.014729150276481487,-0.28545703648758963,0.3452010016802698,-0.031437655614452636,-5.989735891123642,10.795507846109246,25.91355996669476,1018.4933448325683
14,8.419372165274687,4.81536079223465,0.6252517025577478,0.07596072054574157,0.06123312661619748,0.004894706794429443,-0.2405241352059767,0.2773289613299497,-0.13166310313115026,-6.696688404967189,11.994793558188618,26.17706901719933,1018.4918250790163
15,8.361936067825377,4.9525214933078505,0.5996804913591121,0.0278319639919431,0.03061409584938644,-0.0031243246042913387,-0.28607955278566255,0.40067450806790017,-0.2236828560249285,-6.773781650441586,12.109224715648873,26.066469466664184,1018.4895865918558
16,8.326354023759007,5.003840049101863,0.44878848159952744,-0.03058993928709556,-0.016383043181723945,0.0007769634657716117,-0.3288793951490228,0.46612962345043096,-0.3677827970285261,-6.275214542573881,11.476937788409975,25.750292667687713,1018.4863576582236
17,8.398330570413076,4.925997766575793,0.3753475148885978,-0.0711845702288442,-0.028190058151140653,-0.0034430874171753143,-0.2822924596566059,0.4369530532207631,-0.438543373166156,-5.685139941060393,10.535623134881416,25.69220127452565,1018.482304382534
18,8.417308824817432,4.857804842646142,0.46236829397686086,-0.07345971043804438,-0.022212430471336832,-0.0002762005463225097,-0.2842695736609945,0.414515716952669,-0.42062976722565654,-5.42620442703751,9.84264528808642,24.744189877407848,1018.4769329038268
19,8.426217963304659,4.7658885459168845,0.7294698477253658,-0.048970032182964085,-0.004750918994208531,0.0028266904297382387,-0.2811135871011158,0.3772024997829124,-0.3028219192533918,-5.33270895045281,9.228155423762562,23.505695076253357,1018.4706364946691
20,8.477340087460629,4.5621815264797565,1.0659727131156238,-0.011231428066757303,0.015432201763314498,0.0076389372285576174,-0.23826110803292413,0.24047043936015008,-0.12548448209567667,-5.4324864801613915,9.029830377157918,22.78118395347688,1018.463959445393
21,8.505374341141582,4.509347770482333,1.0710842845082058,0.01574386457234745,-0.009710804389289385,0.006771398246477888,-0.22075300648406004,0.2073120887460062,-0.13188772837339569,-5.45432142202118,9.201322091132235,22.799535746875083,1018.4559315305518
22,8.496151968797527,4.588167973626656,0.9599844622707203,-0.004009963311017491,0.0017311813794161583,0.0015987286370411323,-0.23627612188301478,0.2818892895424488,-0.19098658351653192,-5.1557807274096135,9.032371545712182,22.936035087823004,1018.4459823851497
23,8.495462277649048,4.592899556771299,0.9383430930321842,-0.011761139732622473,-0.0039461534969499005,0.0025431125027479003,-0.23006945073472662,0.2615214061506646,-0.19681537216024955,-5.197305886679227,8.907606679936244,22.925365547850987,1018.4370223534413
24,8.524517898742827,4.507660596204731,0.9387651818411765,-0.011414682047541501,-0.006923331017109116,0.002574716952987937,-0.2005827183766138,0.18739328911391478,-0.20558423629517011,-5.347707310805991,8.792886928587224,22.842332313495344,1018.4287779092001
25,8.485373605793486,4.606313504856096,0.9256376752168672,-0.010178347631169777,-0.009347474814184898,-0.0018166564386225817,-0.2380908175196059,0.27701248771638265,-0.20653166839960088,-5.439655109602485,8.563576574447888,22.858651388119583,1018.418021696551
26,8.534381331751366,4.514053916123551,0.8695535452822353,-0.010210326563811344,-0.006219296278534812,0.0008716353699646747,-0.19940954680644285,0.19337736394569044,-0.21923450599990862,-5.212935811062918,8.410235072344978,22.891649286835204,1018.4060713603835
27,8.604431171151038,4.368355456193532,0.8289128992628183,-0.012057880797657312,-0.001502555383091123,0.00103883678074812,-0.14432024509066285,0.06341941140815485,-0.2187147211779638,-5.233737965619572,8.621188974754096,22.746872160801587,1018.3956397698375
28,8.633698614306583,4.282032736778696,0.8379824021693044,-3.773527469480911e-05,-0.008643177457948912,0.0025560183943143197,-0.12680532153368151,-0.004833714683650778,-0.17578004953534718,-5.262389772163717,8.420511369086931,22.765479219020442,1018.388006436139
29,8.706247360438772,4.206669400387262,0.7396244330234651,-0.0011567925031626418,-0.020385811538116184,-0.0009866487157633892,-0.06771108560466127,-0.07007297136635465,-0.1889733293137777,-5.101102051588128,8.401855933650369,23.206785637799275,1018.3824355408404
30,8.766139428836281,4.124533393073802,0.7561909277595893,-0.0015718992127914026,0.009632066409787799,-0.0011217237955031747,-0.0046017970495804555,-0.1585919304818748,-0.151262672373747,-5.152000216403343,8.42738001777242,23.35190570655161,1018.3810286702968
31,8.754257811681297,4.0779171401474095,0.6582567223972715,0.021496806506078197,-0.012103685468473013,-0.004537511289044853,0.0022947170722850034,-0.24028476831870887,-0.14492576602917243,-5.371493473255755,8.49314542435112,22.92662134392806,1018.3833821088751
32,8.75677304555874,4.103238416440282,0.7296072290172285,0.009333572860602588,0.010164744201089856,-0.004622501905109164,0.004920505219759062,-0.2327323649594195,-0.10751429946481326,-5.588032572494068,8.559724055355764,22.742581758013934,1018.3884594168497
33,8.75878750904587,4.093404047456755,0.5221940830664491,-0.008697529357833154,-0.0003885396425959784,0.004964604649897324,0.0026770354317493966,-0.24896948385341683,-0.22463153398777255,-5.717539730245136,8.681254250109328,22.094942360474324,1018.3952772519626
34,8.774471242784275,4.060133889848718,0.5100288078934296,-0.036763575202363195,0.0004907781881116466,9.894388434079481e-05,0.0046035507363453385,-0.2473852393471978,-0.3022210780080248,-5.361897530110602,8.288587499599796,22.004737073643398,1018.4041283225183
35,8.783524039260266,3.96876654445322,0.943740061779387,-0.010745267130797438,0.02408292934924547,0.006353392489197461,0.016896626979255015,-0.2813777655744358,-0.09039875154051424,-5.561438389511935,8.126404561922088,21.55556594968288,1018.4124636404941
36,8.686944495989584,3.9894389692648167,1.2282388316616764,0.03079666204573691,0.01790876322088821,0.008182666450281602,-0.08412179837846578,-0.21682702377964994,0.05179877600337937,-5.798809854681599,8.454004962368812,21.61502445137397,1018.4185471172738
37,8.654433569440021,4.198704716607136,1.0354473392139947,0.018839225526565744,-0.004544965367050274,0.004769561927342698,-0.12107284554876821,-0.017447502096560513,-0.042657351449719105,-5.687140941289423,8.743414636828179,22.214922102214317,1018.4207818181827
38,8.617754936445543,4.316018716208588,0.8938288825059642,-0.00016976125961819938,-0.004194529598404879,0.004291665047969937,-0.16946803380928746,0.09342019166498147,-0.11267998184362862,-5.428028965012014,8.84154264683618,22.65613974190075,1018.4195272617322
39,8.671534769631416,4.206953298159938,0.8578050847522996,-0.006019510437424817,0.0020463850524740645,0.003170750044434574,-0.12488254138097507,-0.00696188058464417,-0.12827244327688028,-5.174439981305305,8.906688181142833,23.021307087235208,1018.4169213991476
40,8.762071401388155,4.075100771268798,0.8078575645974129,-0.003279249556660815,-0.009723404086441225,0.0040903488088932845,-0.05476982412388191,-0.10580893978034552,-0.1450759170800385,-5.222861542620723,9.082992562493763,23.076631404656933,1018.4133292942236
41,8.764136173989202,4.0460882454924745,0.7830384563608562,-0.004241210945338966,-0.002837047930134416,0.00244842316178038,-0.05932657410425081,-0.12992512720313643,-0.1383076247775124,-4.946238107622168,8.925748279185143,23.028024059022293,1018.4081724728895
42,8.818165636643995,3.993433274487831,0.8119647071964473,0.0017902537288768776,-0.004304012645106781,-0.012791019598324682,-0.001343883735539432,-0.18909496639009987,-0.11271258499771299,-4.946133482203826,9.058493666032598,22.896271027197777,1018.4044087989186
43,8.830400125206337,3.9128315645450717,0.51440904030739,0.023284846112397815,-0.033664577973982174,0.009788115325259944,-0.005563361654994802,-0.2624326451920131,-0.10317797199204994,-4.97062906304937,9.257779240302362,22.549332596834688,1018.4027749484658
44,8.90227645514213,3.8080553054239044,0.3097768894713958,-0.0012211407231340378,-0.006617599076771851,-0.001230861706984436,0.04391208436267166,-0.34126930023787194,-0.14240379086993513,-5.36266669320716,9.348237544618236,21.849166845227263,1018.4044269676274
45,8.903972367050592,3.8117810949724227,-0.17990556155036297,-0.05106315649468582,-0.04737645114048676,-0.0024996455846741077,0.059644279556574815,-0.3765881562201243,-0.4568801216320164,-5.599606650014177,8.605093518334494,21.38990850506963,1018.4089304804303
46,8.839562403393671,3.8808555993756766,-0.7298698584554715,-0.14277699454977488,-0.08177551694618837,0.0029721259822080605,0.009497293093142067,-0.35095332114191924,-0.8956248262543894,-5.305096396867705,7.4219656284346085,20.234380072407248,1018.4154532723788
47,8.752260244246369,4.021896988393364,-1.2885377915965193,-0.23034027914516522,-0.12433226173162179,0.008119255049200452,-0.08591196308316719,-0.19947117155467792,-1.3058150506076116,-4.6324281332557184,6.705023645269168,17.557110380577832,1018.4202962892059
48,8.652510174771296,4.253117550838195,-1.4967639945842681,-0.24486960220866943,-0.12299971979945844,0.008431156373691929,-0.18986862656954914,0.040817888719223816,-1.3610533919773926,-4.401259390813536,6.8929293211195315,13.704881315889043,1018.4238309349519
49,8.54415885663417,4.489062496829694,-1.4434780143767032,-0.20114308291209654,-0.10686606994963307,0.010808573786312305,-0.3014624377847744,0.2857246481403526,-1.1939027227775774,-4.2967336561476435,7.628628997493827,10.150883610308654,1018.4224120921001
50,8.556473841028904,4.527255146209432,-1.1150580901915226,-0.15947101433191913,-0.061272713199550806,0.007131346575487948,-0.29506857828001526,0.32741461526367893,-0.9260670214700698,-4.230710946890842,8.354920168248078,7.49130152969213,1018.4211498973967
51,8.68388802838845,4.220073439684287,-0.9486921341124467,-0.09830850398885843,-0.062070764528433554,0.015371865178474383,-0.17267063201628968,0.02071654078565416,-0.7150683735422206,-4.545728990576504,8.7663209512339,5.121985150298661,1018.4202286924332
52,8.88803975252173,3.82746378126551,-0.7695302449571916,-0.07419742049854447,-0.034055009095097205,0.0022856868265772167,0.009173365402064898,-0.3263195682232458,-0.5491112020323294,-4.929726039335145,9.213811425078564,3.425223280609193,1018.4209165932397
53,8.898751689878369,3.8104825649163034,-0.7693991207596492,-0.06758614699572464,-0.02622785748124143,0.0017743231088265718,0.03707991206202606,-0.3738415987699321,-0.5009932813929606,-5.301828355319783,9.52413793318767,2.3890510642455474,1018.4272929300412
54,8.876996205232707,3.8409243536450117,-0.44678403379603715,-0.037762648498130214,-0.005746199868918292,0.00461855863207271,0.018921902849185452,-0.3580760078997922,-0.3036644647679053,-5.505514489891961,10.164923142233459,1.185272616965637,1018.4395728995516
55,8.852475404672868,3.908367033051429,-0.3129308702851348,-0.022717213549348927,-0.0023467824892880428,-0.004032159751744662,0.0019019151806633772,-0.3052421648012702,-0.21842564057332448,-5.636472657493153,10.921817980168571,1.9263669865087754,1018.4527400702988
56,8.82602757389334,3.966316494448031,-0.3239170897578873,-0.008159013619231926,-0.014133717900468388,0.0021619979326174795,-0.02445441137924977,-0.24597462492775918,-0.20646858790456543,-5.361493850208599,10.098112832459371,2.077779011609524,1018.4623500480758
57,8.82674243552251,4.003032314918762,-0.31589805567042517,-0.012168950362101628,-0.0021711997063921726,-0.0031769179297832136,-0.028779381733440072,-0.20593104690065675,-0.18220245916609784,-5.25065785383103,10.034329161285859,2.151292924763633,1018.4693638306604
58,8.827806059968411,4.035539162904067,-0.24844336148161328,-0.01519532280290957,-0.008797399396668095,0.004868007388055633,-0.0345899916361655,-0.15923707697160727,-0.18485768737475305,-4.70923797303037,9.907902101769622,1.7841505746324042,1018.4744827963111
59,8.819161861134893,4.0538442453449095,-0.26425086015528476,-0.023616590489050494,-0.00518859913727588,0.002130302545325869,-0.052373126351585676,-0.12460570069462175,-0.20577846426629473,-4.4052903616807075,9.98723046492484,1.4995545871226539,1018.4780332442754
60,8.824035771150852,4.058563985723372,-0.25202702627609563,-0.016941529808387746,-0.008423828205018203,-0.001685137602571633,-0.03516440898933855,-0.14560432513645571,-0.1787091709780736,-4.268718477139147,10.22105576247121,0.9360891814926388,1018.4798826677094
61,8.84328009680703,3.972540557092269,-0.4105544790111269,-0.005670046512157769,-0.017087483105793916,0.005847274802972824,-0.03311548923949281,-0.19248048664227477,-0.1736318387161496,-4.699228848066955,10.308216760574542,-0.2770671473034966,1018.4810673924688
62,8.876620769175855,3.913342354786195,-0.382122327029351,-0.014342026961829114,0.0037342345385290125,-0.003064138320363375,0.0035088235173391727,-0.24623234025800816,-0.14247782586622382,-5.085900583454788,10.394986309554607,-0.765444289997111,1018.4813550028066
63,8.85257586324119,3.89360871496509,-0.055855336004281775,-0.007600510804190591,0.009397666784340038,0.009370501196329328,-0.03721599147328474,-0.21969233245764858,-0.04524956432119573,-4.680988376174435,10.919083067795189,-0.9295476502658659,1018.4805137356046
64,8.807342590753214,3.7892697718616977,0.6757107636623494,0.05246995772296497,0.06775934926054099,0.02360441075388698,-0.09829515446150894,-0.22898199144835482,0.3531306625500361,-4.091044006171078,10.81566998182814,-0.9800113482477627,1018.475633164909
65,8.655217201484188,3.6676811928058455,1.767101114360705,0.17469718349954008,0.12216179319473343,0.04943563704777476,-0.23813612595758418,-0.269710520585098,0.9779724528686375,-3.6816822862193317,9.694698283116917,0.6385024571593275,1018.466629894441
66,8.534521194248434,3.664345978631424,2.4768182801961593,0.2596357151056193,0.1326805823295564,0.067786788196739,-0.36722492427068987,-0.16993700742780277,1.3609703614227082,-4.028471289194595,8.825246171549239,4.33278841345245,1018.4547822222868
67,8.628149045258446,3.724840493403524,2.4708852670743195,0.2570458309999478,0.10016262765951678,0.033644532892962736,-0.23274280236840814,-0.1966114489299316,1.284129638805107,-4.241504012113979,8.655723022450545,8.199019375452398,1018.4413535074111
68,8.565310796822107,3.702119694874095,2.011606676990401,0.1877921467174306,0.06289041942909114,0.06185665433632855,-0.30813622331634316,-0.23829622347260165,0.9296017416214688,-5.670493773057162,8.480280690629039,11.117520362925053,1018.4281724487537
69,8.671118854111635,3.719559484837228,1.300178481084351,0.10079188806803582,0.02502192548696644,0.03764630289977228,-0.3028024948230903,-0.03515135197220018,0.4391822273049132,-5.444289061953323,8.266802095131888,13.860456254541461,1018.4163057159136
70,8.725806173311307,3.9157798115177473,0.3905868021256035,-0.019827055004221064,-0.03674723306885081,0.009019748591618929,-0.27238003435293817,0.16998952587897984,-0.21626839052011582,-4.765454885876175,7.4837338471094395,15.155695752143217,1018.4029249554873
71,8.624239924080921,4.246504653949073,-0.0814602479043206,-0.08516787001819383,-0.04318172179075513,0.008856721417058858,-0.3590338404943541,0.4244609940302839,-0.5482939752227344,-3.937424318125764,6.32299370874879,14.793032033127007,1018.3851616562697
72,8.537455359307803,4.445569273178835,0.23121122402907635,-0.0747600052092593,0.0016654333482919031,0.014161022927635589,-0.4335277779750155,0.6060798579457266,-0.3641867810721605,-3.3794818266730133,5.7987243836289055,13.962473096352202,1018.3688994258008
73,8.402372310667465,4.181815856349137,1.500198712689611,0.017281031368962252,0.05196315499041277,0.03703162610023612,-0.5345372041599127,0.42067682408721485,0.4416374143212355,-3.5461511478871315,5.755318833743591,14.036134126585715,1018.3537327410336
74,8.397529259492714,3.8680928694951913,2.3950354199387602,0.09162300196230225,0.04911424499560507,0.0492353361513343,-0.5259287942210563,0.1634089577013233,1.039776347028522,-4.032672320320502,5.952751218822631,15.626794335485847,1018.3362739658028
75,8.540210118906504,3.5811444892405695,2.2656212820832002,0.11985608292878269,0.015032713045426353,0.042913765436873745,-0.41799218942776944,-0.10607518656699616,1.0196558154381272,-4.5593238609450575,6.647536393555611,16.481102826142955,1018.3235317871522
76,8.801069303344107,3.2566032973566568,1.9364575643310564,0.08174082399740669,0.033889656919005154,0.0282711494917453,-0.20240600682780494,-0.3887968121518776,0.7739886500173925,-5.25000785965372,7.35389709805235,16.99418820570156,1018.3153655626819
77,8.903253519127862,3.0978491228838454,1.847101873930607,0.05285576320030656,0.03414795440286378,0.017230735472164534,-0.10192401952894498,-0.526900633454055,0.5973356443984729,-5.495556692912652,7.80761877349732,17.779880705252786,1018.319072224053
78,8.970041784354796,2.959487922743742,1.8533591872319408,0.04633235255581087,0.02666333261022528,0.022426165931430198,-0.04087807644363408,-0.6067179761912144,0.46584523405443656,-5.085844636468097,8.376504882819278,18.158159305263236,1018.332124490744
79,8.984355939758888,3.1566010606178856,1.3495884915095173,-0.00914252458431316,-0.0439939808061221,-0.0023271895825523643,-0.025258690580758775,-0.43473066267380867,0.033141750892391464,-4.905451082181441,8.184072881238746,18.941438831568245,1018.3479163395315
80,8.850764776718927,3.595731683485273,0.14927021616154468,-0.12912110327413626,-0.10075238332676155,-0.0030736162723023746,-0.15677747476846154,-0.09116720430375214,-0.7789440297981578,-4.031470829593039,6.943581565607115,18.568555446959028,1018.3634818382643
81,8.670917282442707,3.9514428257668213,-1.0483918932720893,-0.23488711201693593,-0.13672552009397562,0.0022275241582078893,-0.29715793634678384,0.14608467181901016,-1.5909700087929295,-3.2549442824518766,6.031576943566863,15.808247243602247,1018.3748422208237
82,8.614785716450035,4.248272715871214,-1.296997026039715,-0.25403925643466824,-0.11272407386457038,0.008345881545803341,-0.3616963000720037,0.4318525615476295,-1.8256805433779708,-2.799973996238805,6.368178541484985,12.288151123653691,1018.3754043562437
83,8.548569007210242,4.452070013329399,-0.7273478909954256,-0.19890662760333713,-0.0661128568798587,0.008785946620437673,-0.4309555421686069,0.6647591550424656,-1.4270812103212442,-2.342601476014323,7.322372107432703,9.523807955252687,1018.362149315623
84,8.559321328909373,4.4456851431931135,-0.21679844312044194,-0.1469533823003536,-0.042543918048864475,0.010622380029662242,-0.4341130794617588,0.6847114780511389,-1.0282242441387435,-2.0126696937450013,8.213523285907765,7.33489487204948,1018.337758717079
85,8.59478972058833,4.300977288467483,0.41540300893351423,-0.09227748301379668,-0.011661070112857143,0.007721768902940048,-0.4030473016619649,0.5866920571474707,-0.5924123962010569,-1.549317901107576,8.885055158347123,5.843317434610491,1018.303530271624
86,8.53292918158351,4.245499898138478,1.1168282962167648,-0.0421622191229604,0.006666320489438524,0.015697176988166778,-0.451653524396691,0.5455911355996711,-0.10041443315550536,-1.1157340906901208,9.092197499418726,5.067838734429207,1018.2666147026719
87,8.63767232367373,3.9352618457735233,1.4158147193496573,-0.014510689033788257,-0.010226482833205677,0.01460498187069289,-0.3464399839207699,0.28000886755368115,0.08192388539038523,-0.7854208808015928,9.015012581384303,4.665993591021211,1018.2396721039869
88,8.791827495475665,3.8354512881320817,0.7085641532735201,-0.044044867496183235,-0.03741687952470717,-0.009785432051900913,-0.2119122084234222,0.16876418104641483,-0.4387801603514564,-0.5605211816266217,9.058412633995443,3.9448042500037728,1018.2208327324594
89,8.88017677066309,3.6814914097815192,0.38181764188546885,-0.04498065909508898,-0.016471161623038164,0.0005406953007755493,-0.08817241947350174,-0.11100329347838034,-0.5901199723202538,-0.871911993442446,9.430249967128974,1.9780454320005545,1018.2111640489924
90,8.99215944545355,3.3760622282408455,0.6890601917278851,-0.02187508564480018,0.010729873652797955,0.004820678929628476,0.03447163375786334,-0.441560876529807,-0.34070053435879644,-1.3765461852698926,9.830266958621333,0.19516324534444673,1018.2081885352392
91,9.027802383833572,3.1017200584298403,1.1196823223028405,0.000854710203568719,0.004181223046609116,0.016338094025305703,0.08052654393423386,-0.6867723165487957,-0.09447225982557614,-2.124552529791332,10.112947254366716,-0.5221244105296466,1018.2184040776367
92,9.21115250907793,2.6625458530298904,1.1528607193607145,0.022600168430103196,-0.011938886228129678,0.017927434236782967,0.209019885985118,-1.0293869716732342,0.04247405822391659,-2.4879431617624803,9.514528133420566,-1.2068556129684833,1018.2405968491555
93,9.389225461502308,2.220937057384789,1.046348328000974,0.028540851373574132,-0.00618510219467542,0.012942568774379916,0.3352519627097713,-1.3879007438335527,0.09972483846141511,-2.574306569584574,9.213677868514912,-1.728283981265274,1018.2737366822612
94,9.53056716722389,1.892542773092932,0.9314417457927516,0.028954297428813253,0.0030359295048388675,0.008855010060757354,0.4406148264543003,-1.6606968533357218,0.11786405359388678,-2.4405668146817874,8.943152667083968,-2.0549986303102803,1018.3128667341402
95,9.599667458650258,1.730410593653771,0.8368765951189779,0.02387701404217982,0.0033288444714492647,0.0024110055506833157,0.48757023110926473,-1.7918107331510393,0.0834492179442059,-2.224138129825388,8.762742019871455,-2.081393326330914,1018.355812188184
96,9.532422213041203,1.9639679885100858,0.7965408120153968,0.011806819023628888,0.006410600863248601,-0.0031178339136010225,0.401810944069229,-1.522070893871219,0.0614899279372149,-1.9480683904258116,8.618462244516328,-1.8751631618776357,1018.4001407193699
97,9.385822242984544,2.352101019461373,0.9318246241102285,-0.0018084038817833947,0.013407208495648613,-0.0010138628415791032,0.2555752225197276,-1.0972123143444272,0.05339491848361485,-1.1715327884468636,8.501895364496306,-0.861839885609001,1018.4402230618706
98,9.261307591536694,2.697504661813856,1.035168871317519,-0.0012667429772216855,0.011106267284508803,-0.0032479917259990057,0.13337225477773051,-0.7335921622970097,0.05042207383546108,-0.42809479624071844,8.377574005519389,-0.025522747896754017,1018.4720944540952
99,9.152680095020136,2.9747057669521246,1.0814954983081648,0.002776865654188224,0.00447102344175367,-0.007993920046405163,0.054570972737477214,-0.5220306941110524,0.04515380598348636,-0.06482051431874752,8.049830831715765,0.1745808188701876,1018.4953969256297
100,9.120765936593465,3.076291621165521,1.092703440650093,0.0022656798850299396,0.0027576691739466534,-0.001245151111465631,0.0253002117840255,-0.42789601241026787,0.03302315954946346,-0.5471032087127292,7.747331302592711,0.10190884865347861,1018.5124040897273
101,9.078561376739248,3.201919712279586,1.1124371017097205,0.0015997368737694323,0.0025152436311307396,-0.001143957782009466,-0.020784081448497138,-0.28933836707960414,0.028147512068850675,-1.0210234082136855,7.506615714947328,-0.055567387529965775,1018.5246105336079
102,9.04949444001746,3.28716617948437,1.1244395407284695,0.0013819689735222378,0.0012965727822052337,-0.0004935247624716915,-0.05196817500765913,-0.19600596036184162,0.02414367492339223,-1.346253092291977,7.374946993527536,-0.1822664531661416,1018.5332100019866
103,9.027879624620223,3.350049652496663,1.130826846577528,0.0011005054923316215,0.0011069465310767147,-0.00065818353876354,-0.0730362980316406,-0.13347674746307955,0.0198797063317367,-1.6294150097272075,7.228076049163473,-0.29657663186982786,1018.539465738692
104,9.011625384115654,3.3990319036890893,1.1340618822296176,0.0009057329170924879,0.0008347781216624041,-0.0005963496239689374,-0.08657530562353201,-0.09088226173766296,0.015566173942719967,-1.7778648007801099,7.142366637307516,-0.30455894431239683,1018.5438871858495
105,9.000134940477032,3.4325219575916632,1.1346368662965358,0.0006596110678665714,0.00011738933901859789,-8.116230922406993e-05,-0.09538160853187588,-0.06409957099506358,0.010936203073150099,-1.8645000939873715,7.093487788312202,-0.301311616127964,1018.5469492212245
106,8.994058844403078,3.4537580223846525,1.1312118280586438,0.0005918472793070939,0.00023037683468754268,-7.529362646630862e-05,-0.10040481067963246,-0.045964308322941586,0.006774732949195362,-2.0175807586132644,7.043796244521521,-0.2724700929411279,1018.5490190983547
107,8.987930643963491,3.4721241813832004,1.1292725744007495,0.0005257244113942173,-0.000150659158938989,-0.00025704036934762946,-0.10400428084137804,-0.03412135102651155,0.0038353330012522208,-2.0833128096833966,6.9656487158554805,-0.23586867914888587,1018.5504679195478
108,8.984190252397944,3.485767200565291,1.1242651464336384,0.0003832877868397291,-0.0002838852599592838,-0.00011384525475870256,-0.10590726686202266,-0.026349504454224792,0.0006273613276914667,-2.1454705068976794,6.892942320913287,-0.3276534815478449,1018.5503712253586
109,8.982351348411022,3.493813310256147,1.1193514790061294,0.00015824352335440083,-0.0001185178153190341,-5.056663593224736e-05,-0.1068937512771062,-0.02195101465359149,-0.001340290583085353,-2.1663708628287983,6.884361713036227,-0.37976812782197206,1018.5503006537053
110,8.980119824077372,3.5005573476678915,1.1157278590243687,0.00037334255857045576,-0.0005556438742571048,1.1250965827599608e-05,-0.1077907382058154,-0.01917402007913978,-0.002721336855594032,-2.1833505993009763,6.856499203190792,-0.3880751179417355,1018.5506614058019
111,8.980867930431883,3.5031980919208876,1.1059045973909862,0.00032743436882064214,-0.0011218345977057076,0.00021276996688161006,-0.1077437570770848,-0.018407310501420224,-0.004246240062277808,-2.0657160803355428,6.867950812310292,-0.5539131645523327,1018.5513780206021
112,8.982258304577462,3.504332811691731,1.092784906758366,0.0002529688583992679,-0.0008191812023186308,-0.0005830863333468869,-0.10714386086762856,-0.019154967291651115,-0.00579632467500662,-1.869888653084666,7.057411307073756,-0.5998753238811253,1018.5519010374625
113,8.979913947073227,3.4984176965112357,1.123659545044834,-0.0039036853242933743,0.0010224726787856347,0.00388482343935248,-0.10565865465674508,-0.02301548406327405,-0.005409508122301264,-1.4411295944932054,7.316304581445862,-0.17781028881612482,1018.550510263163
114,8.906276130678092,3.6893898556692433,1.1463127974409448,-0.001599881521507166,0.001722245544795047,-0.0007224709333974737,-0.17883468141464332,0.16821846924835862,0.00633660901571467,-0.8324668152927015,7.454915920902723,0.500330532067394,1018.5472280642499
115,8.786929716529224,3.973546572800197,1.2505938343759424,0.009296231974328249,0.01366245147088387,-0.0009668405034827093,-0.2791743838725208,0.4175706709046971,0.07266429170489994,-0.29933204337148356,7.452379260211485,1.2127613237049162,1018.538360439394
116,8.554100024471007,4.324057890073378,1.719082677529733,0.0743025302485045,0.0478026015441015,0.0158800434057472,-0.4759915042827839,0.7344460460973836,0.3960906396674845,-0.13832310954883825,7.008319871284772,2.1645669035709645,1018.5205729655431
117,8.33999870454886,4.333917050572697,2.4824906915414386,0.15698216379631386,0.1034554598346757,0.04747002098545164,-0.6514407419300787,0.7717363251702323,0.9196257756780316,-0.5294402899555686,6.2138977618593145,4.621654013766948,1018.5005211703382
118,8.244161835861682,4.053302695735694,3.143860138710808,0.2188510933176424,0.10314096916040941,0.07319593032300707,-0.730109460786781,0.5786367153352121,1.3380094377463574,-1.6745216540998045,5.956217405277843,8.435259253850855,1018.4744059337872
119,8.185683442066878,4.102038648978401,3.41198066948283,0.23216333965168204,0.09383300818007625,0.06349073266896381,-0.8062568708968638,0.7201316620226244,1.5009298270228681,-2.9160574152825163,6.534565028695044,12.5174932545006,1018.4356004432456
120,8.102648363575891,4.487564141576767,3.214637531695334,0.2006084504389123,0.057030052969179075,0.0476532929800018,-0.9084892515881702,1.1178731880861954,1.3658858144338786,-3.957182804612426,7.382408717703086,16.334715999799034,1018.3811227830637
121,8.082821758274894,4.816572514144948,2.81934885891356,0.15321597025329753,0.03225607196575389,0.03498808647575474,-0.9469074944665965,1.420778588967758,1.123325688432583,-4.5469958126903895,8.083432123836475,19.235405734306102,1018.3200915816902
122,8.338084813585379,4.452471375474256,2.392496086576605,0.10712409470739695,0.021705181636812187,0.031796102748330175,-0.7266122719613687,1.0704246114597131,0.8498240999142179,-4.660284413868625,8.780540135989146,21.532006458093463,1018.2611102449766
123,8.437260415663866,4.466109585972058,1.9759546490968884,0.07354687601095734,0.013855221208530031,0.017650661627134856,-0.6473729923598478,1.0701713167685414,0.5914267137718856,-4.546151826436829,9.328364858923697,23.183940140629343,1018.2036249892516
124,8.438925590024974,4.609007973332457,1.7399676053450628,0.04642260423237447,0.013862009085107038,0.011629021431782958,-0.6475964806455554,1.1673041060932106,0.4257598881926916,-4.419572634341763,9.528412133314186,24.38565843731246,1018.1213540507979
125,8.377992559414864,4.658583513264548,1.9146297187662822,0.043587651801779106,0.027231378087304966,0.010546697968398099,-0.6863937538268006,1.1946686986612718,0.5137520348632422,-4.747238148043693,9.763284504009144,25.23001202639185,1018.0205193116183
126,8.413826211205944,4.249376752636201,2.38209142149025,0.04592301185357294,0.04336568600014492,0.021656695678392582,-0.6067784359485279,0.7850586241046851,0.7578531643085802,-5.478178644915464,10.198376792701932,26.1016188370664,1017.9196774779149
127,8.396422412717676,4.098095927149233,2.694332030891938,0.050107320340700784,0.027089045254576394,0.016318429245879368,-0.5978503236704196,0.6450535893871518,0.9064870572067087,-6.14452391702904,10.834654809132708,27.0909250973447,1017.8128740621581
128,8.363793835186318,4.064952934684264,2.9097036069670974,0.052239593185614205,0.02780953803163356,0.019218766487623898,-0.6041794893529624,0.6144662513709488,1.0053500594302645,-6.75020593489246,11.425298672277014,27.970343279089036,1017.6999881916104
129,8.42754498617754,3.9483153575215777,2.9057113366625207,0.04785843924927617,0.01466827154274336,0.01625909049817843,-0.5337885369663212,0.49258536533957453,0.9596957383160033,-7.064770821311631,12.1018479423434,28.882204033024298,1017.5941847013406
130,8.54902011568312,3.8187137714888473,2.6002196624472247,0.0356614233462559,-0.0025718187608463096,0.011601191335906045,-0.42752649458894987,0.34809524778306866,0.7498221152837382,-6.933215155572679,12.658691131940056,29.547926169581153,1017.4996303780265
131,8.666886794670036,3.67117197257444,2.3632675609351823,0.02893957189215038,0.00522859971748487,0.005485925902194115,-0.3216511803995695,0.17653370363139553,0.6117575905833896,-6.749593897662148,13.167531344329381,29.911138607276257,1017.4127299376962
132,8.794056387451038,3.457948735018647,2.1337696564988953,0.0209647221699086,-0.0029326133445561906,0.009592981237323706,-0.20188600960204228,-0.06164139807866609,0.4525978193992488,-6.523338211699875,13.56303382661064,30.157080488656714,1017.3404639783209
133,8.856313631689552,3.4296852568644765,1.894834947358424,0.012050099562444053,-0.002555225205343523,0.004246812264652185,-0.15031045144897173,-0.09967497955195677,0.29744319871168134,-6.2626188035193575,13.859957075075426,30.372867993255667,1017.2843409222548
134,8.871479615214884,3.4038309528935726,1.874603880836598,0.012461120677993917,0.004695992692195099,0.003911245934628522,-0.13341108699411305,-0.14025077561771218,0.289113328930392,-6.210522771402456,14.03088245626124,30.8212981532012,1017.2430089339354
135,8.842090125350138,3.313537724468953,2.142480613572054,0.025610211197723984,0.008166742152788177,0.006607599477789498,-0.15752380110676922,-0.23458184984584612,0.5370298729914782,-6.44426478036206,14.324497023539024,31.451305910954964,1017.2132139634882
136,8.852104159955267,3.213104671485942,2.410179883417499,0.03686791294207764,0.014046481635362283,0.008255282260438902,-0.1482739203606829,-0.33403105017306634,0.7912931525866499,-6.778742488985285,14.80322402216581,32.1987128911417,1017.1956935325436
137,8.819885005838621,3.08417345224939,2.7347355267519657,0.04901655297784612,0.022920964999085698,0.01146017371728543,-0.1769099653883086,-0.4553712093615019,1.0743939499161654,-7.225317814968989,15.527671871163161,32.78930388962976,1017.1870492003624
138,8.802052163904621,2.9859236325264282,2.9874372777682243,0.058216997968765775,0.023831209754622523,0.012423405917584191,-0.18827654393051346,-0.5462527730042928,1.2846266735896172,-7.6705284971188314,16.45899726643765,33.3236146668356,1017.1839041226928
139,8.764368598369055,2.9190251346262235,3.113888475716534,0.062430015120519516,0.02362304037552921,0.014713424060577053,-0.22544958987928737,-0.6071706533698666,1.392287974372697,-8.077364906959597,17.506250663959065,33.74627120447786,1017.1847726417677
140,8.770923714451898,2.878355534700243,3.258468063760792,0.06722816430134139,0.02515213832616782,0.014739267118222677,-0.21820835970850153,-0.6417756336365632,1.5161066148190807,-8.49307896357362,18.59011809515921,34.05514053987039,1017.1927439677339
141,8.781257597850663,2.847509996930412,3.334295304400627,0.07055622425094403,0.02462142368207482,0.01402120497125145,-0.20717299695258368,-0.6634107383871201,1.5768210954956525,-8.856872431633459,19.770150246145533,34.288799042034235,1017.2104956709767
142,8.750231913270099,2.818790134418075,3.3717405116385475,0.07146043342666808,0.02524340641298872,0.015705034079924053,-0.24307695371304236,-0.6805754365780861,1.604034017109211,-9.155728488262367,21.03194944196021,34.439351196582166,1017.2316549346906
143,8.761860554997506,2.819646001182453,3.403177174291856,0.07228011937082401,0.02524443142554547,0.015607962636444279,-0.23184518322349043,-0.6703833324944274,1.6190534293810406,-9.420356002933742,22.237969817862428,34.531802200737275,1017.2529927004166
144,8.753095210524844,2.835842364332597,3.368606900740367,0.0699061394703373,0.02603831502526597,0.015238051095877917,-0.23759902678379474,-0.6433230425264421,1.5623120845692755,-9.607558023323827,23.410465421970976,34.32416129289186,1017.2689576626915
145,8.742411308502808,2.873617955092071,3.3825746601839293,0.06502118791977207,0.0315545303665826,0.014634527408969596,-0.2345071510467577,-0.5932983391132106,1.4883630264159047,-9.859359876623369,24.56551148379733,33.765474200749,1017.2806095912355
146,8.814788189091503,2.942169095485886,3.107157413468781,0.054079695455393734,0.004763343892578188,0.009006122031023736,-0.159178738160031,-0.523799496519258,1.1997282930706248,-9.838298076593277,25.62449789274674,33.24698219137688,1017.2840020532183
147,8.921841728597117,3.0193884510030724,2.346186190674091,0.030291134269827883,-0.018445323252186778,0.00353951356787944,-0.07347025399283542,-0.47332545054576136,0.61470343470984,-9.043813301977995,26.298746230884216,32.135426811961764,1017.2811810676767
148,8.978846153014572,3.096814604114967,1.494454986205381,0.003975229736796215,-0.031161517755397064,0.0008495675354232325,-0.03982778609718437,-0.4266001169508907,-0.0023516305289075223,-8.385762432524356,26.320699698395916,32.27558734473114,1017.2693522596567
149,9.087038795541925,3.202019113248859,0.7820618748274006,-0.017496871306392214,-0.028042034476812628,-0.0036059206922475183,0.049242340482237947,-0.3444375077841743,-0.5055202018635286,-7.727207064375143,26.08155961655644,32.46633313165725,1017.2494241165401
150,9.042077695475438,3.278474332773657,0.4552195058006376,-0.026854153361763597,-0.019552773804605097,-0.001180845847333046,-0.005495681054133922,-0.287263575470797,-0.7283800431427907,-7.2222765376376215,25.590682269403743,32.748309757327036,1017.2248625628976
151,9.054650785428468,3.2957774018075523,0.5247930175381574,-0.02482270533023111,-0.0032019053548132392,-0.0001237664913632244,0.005410081697056188,-0.2710499970019293,-0.6850135577805635,-7.208292214068963,25.037849724771654,33.052950054830404,1017.202711222391
152,9.065079004546108,3.266718500825269,0.7422088272004067,-0.019691481116702707,0.0040646493278937495,0.00044786115679721,0.02573468736556321,-0.283304635743392,-0.5675770645012448,-7.323769590531904,24.6141492329356,33.11389740748877,1017.1826074878043
153,9.063925153407284,3.228488316425624,0.995959670772715,-0.012051184064576614,0.006315122119859835,0.00015349402851704154,0.029803733602182823,-0.30081303888082234,-0.42233955963072056,-7.522716276101363,24.41529757330417,33.13995540576564,1017.1665951973433
154,9.04611753074635,3.1983073464757203,1.1998401702472261,-0.005405581796978051,0.00585864628347002,0.00033551756748661024,0.02117240351951443,-0.3142165276319397,-0.3099716754248347,-7.6813513727135625,24.3112017021162,33.13689595972572,1017.1549087266167
155,9.014756816506438,3.176622624890242,1.3411534812431145,-0.0012236139585808338,0.00629860235453809,0.0022395397554419334,-0.012243059289861864,-0.31250725957016035,-0.2301101124907368,-7.741780565810314,24.344696773101532,33.24841195025022,1017.1463794285517
156,8.994004399871843,3.140984933964232,1.4779105800574992,0.0032055277686455002,0.005349632505830658,0.003275425490756219,-0.03844487639365536,-0.310736115915931,-0.1481434763738081,-7.84035167350152,24.495404754382665,33.39506553626056,1017.1401543733418
157,9.021055494283454,3.1467347262115126,1.306353009531069,-0.00039879599600654934,-0.00963331735986507,0.0015415725215999023,-0.027357416049538008,-0.2828703834509092,-0.2743476557055288,-7.707086176286907,24.533607382700673,33.5122786474348,1017.1324161881046
158,9.088706765531978,3.1139272634601856,1.1444391355084178,-0.006139408474176512,-0.007130570640027492,0.00077403762450635,0.02252731700680384,-0.30273708192534526,-0.3821708998021209,-7.5453577148785955,24.533380544248335,33.55492475733525,1017.1267685216777
159,9.09484307687285,2.966725456681071,1.05758352349024,-0.009370138436209506,-0.0029532803317142663,0.003946787642108652,0.005895743503417216,-0.4062006189002314,-0.43075924712026503,-7.390631766311454,24.57509805015506,33.62981317994556,1017.1322104074752
160,9.08401880926197,2.846017815786441,1.0931287933651674,-0.006313289304835533,-0.003172651756077128,0.005519027987989606,-0.03317527475694668,-0.45363052175291296,-0.3832106102845422,-7.460240142401615,24.648123358516706,33.6799629770627,1017.1458485934371
161,9.147015985081051,2.7772520321030085,1.1004766300915343,-0.005650871466620678,-0.005847875079536231,0.004272177828579846,0.005253690139331531,-0.45601205130015826,-0.3606893228472399,-7.364028576759941,24.76586366563721,33.915187212132196,1017.1668706387431
162,9.154174792185616,2.722794277784448,1.1213337115532638,-0.004204254572113037,-0.0010997873791005405,0.003888064376480632,-0.01846799116025506,-0.42513017211311455,-0.31740163843166597,-7.252981591380029,25.21423373598424,34.186790463306714,1017.1990736269503
163,9.17780026300838,2.718218605092422,1.2258344770070855,-0.0018271238905884857,0.001449606550075604,0.0030750932124907807,-0.015882222379434926,-0.3747038991507174,-0.22496963138552611,-6.533887464002054,22.99927010273536,43.01223347181989,1017.2467949314656
164,9.269428901522012,2.708442753808054,1.1589185308186754,-0.003708801049854095,-0.0006539289164067337,-0.002316087415792384,0.0661507507304937,-0.3633772023063008,-0.2738031409341799,-2.9082934903628983,19.49719362263767,37.83552155163615,1017.2952688089206
165,9.34790371641626,2.737898849541747,1.1068487643277591,0.011780509235845445,-0.010978812673675118,-0.006855637289269712,0.15631541145682493,-0.3911811148361241,-0.25078085734831085,12.61841118687553,25.34369081725094,25.462042954425293,1017.3549477185254
166,9.465937575011951,2.591038719854054,0.8854475774866359,-0.0019242596872436103,-0.012203173245735204,-0.006248720626551261,0.2695385459247116,-0.5825977813965201,-0.333513888141299,18.219955319768342,25.80960146403623,13.596340830862378,1017.4278956450534
167,9.53658264645512,2.33691500642567,0.7387975879495503,-0.003370974713730146,-0.013888772082378363,-0.007609518582383332,0.338994032199798,-0.8666176771879868,-0.3840209738579452,14.055289461938566,27.998780739996548,0.05553432366183664,1017.5179893255728
168,9.566750563156528,2.1682509498440545,0.744690999263906,-0.011793490834658027,0.008314131360996688,-0.008685053728562264,0.3810111617121711,-1.0662508183849888,-0.36557554889015026,4.471414563466,27.561943963935473,-20.01566495804321,1017.6108267988897
169,9.54481768898267,2.044158568635189,0.8777270945535498,-0.0053262063951016615,0.0049959437623739115,-0.0009313256012259174,0.37177031019982837,-1.1989005836503837,-0.30998774617779123,-10.633447811950308,25.0287880576969,-54.595521574455375,1017.7092120723041
170,9.54000102970211,1.9446300617412868,0.985271314929569,-0.0017453534954831739,0.006166848440431572,0.00011679718353803576,0.3682904703308989,-1.2839766714343213,-0.2561404727572365,-21.682940116089334,23.24677442530533,-79.83046135980621,1017.8047827844387
171,9.553117781306085,1.882461066225122,1.050598046359456,0.001918560931499611,0.0038324325378954367,0.0020964010485400465,0.36973854200356004,-1.3143789056314465,-0.22735921801609776,-29.748920152559915,22.09340061522071,-98.31364643798875,1017.8853554470055
172,9.669030243470221,1.469369277767465,0.9812813074583054,0.011737688242361538,-0.013283409798076195,0.009572709839384373,0.4505008440167718,-1.6486308681616852,-0.22806175494377845,-35.44200626803691,21.50888920013983,-112.24499032311938,1017.9549818762613
173,9.740970546851278,1.2344615671909775,0.8900196786276181,0.004472053661087098,0.002193263062651501,0.0010706920684316994,0.48833289092317045,-1.8087540779172047,-0.2368987693639186,-39.47081003009139,21.180091032148564,-122.37284732471429,1018.023709379834
174,9.624141030668191,1.550664124287302,0.9849379528653652,-0.00442166301543391,0.010195819896536699,0.0008080781482636948,0.3686433930555245,-1.461056097449839,-0.20263058124182198,-42.544190459056466,20.639399816238125,-129.26340898288913,1018.0862158602727
175,9.392366057321077,2.2108962314064864,1.1235192115239432,-0.0023421681946540016,0.006494180034421395,-0.0022622049843075438,0.135349530036261,-0.767677194914862,-0.13701501330209914,-44.34202808433754,20.00755398676731,-133.86107085409185,1018.137277313158
176,9.13551506583948,2.9179480025522446,1.2484427502890705,-0.0007075886979612358,0.007194460632634743,-0.004756970169196776,-0.11216301788984595,-0.06338131310621664,-0.07256790990818883,-45.681004433269145,19.56114802021276,-137.31641060571633,1018.1745441973593
177,8.92285982961385,3.4921914764196615,1.3452399935446222,-0.0016896209497465108,0.005239160838299188,-0.003576353583643975,-0.31677160940171883,0.497582107127277,-0.019000148489013276,-46.58397112216081,19.17845144501813,-139.7997802606149,1018.1973734245695
178,8.903235694120742,3.560544868810676,1.4076348089949884,-0.003771001647187595,0.0024390210075637855,0.006817250373072805,-0.33143202262015187,0.5829549372132153,-0.019464830092350838,-47.40889770107719,19.020364968268403,-141.5010068923508,1018.2026578355299
179,8.79902588120024,3.7997826584735335,1.4199941170905062,-0.00047340315599985004,-0.0037033828034110316,-0.004586568227925973,-0.4406919562641366,0.8430210912636749,-0.00824374642179411,-48.0563611946021,18.802763289787748,-142.68203880901726,1018.1908706942824
180,8.663432094349437,4.2141078436573185,1.43776585534957,-0.001988264520526805,0.002466388407104381,-0.0045090034970183815,-0.5703972016160503,1.2398101886314732,0.019062795869341103,-48.49194065048788,18.56919440404187,-143.48340222474494,1018.1616360925624
181,8.530326212387816,4.513875787174033,1.4435756880628847,-0.006478187917272704,0.0007256442813678779,0.0006337808490186189,-0.7033061070995947,1.5294133153784732,0.015027772531958788,-48.64977920933792,18.41151926416221,-144.10357723670748,1018.1171321541497
182,8.64289878287778,4.317053367755426,1.4665164878538015,-0.008556258139606473,-0.0026252019171115744,0.00309302821644924,-0.5875669712269371,1.3287379082852275,0.009930756226343635,-48.607285658475675,18.377436666186593,-144.68937472839482,1018.0583925876704
183,8.670383571926111,4.283000823193744,1.4368377546977855,-0.006441016751679787,-0.004337111605577316,-0.0012753924162312233,-0.5673077700623377,1.304019404216125,0.012245820610087632,-48.51545359915215,18.384801121446056,-144.89403445618237,1017.9816780605158
184,8.570512944175112,4.407268921352184,1.4571964007115217,-0.006486243093678922,-0.0011007758676074785,-0.0023315150623340504,-0.6589253179724239,1.4006637826716528,0.027086792236402493,-48.22142141251157,18.344276911440883,-145.2866929136667,1017.8875783130728
185,8.493643042439198,4.450496447843973,1.4296513733102585,-0.007744149116848593,-0.005873874406627068,0.00301060565949435,-0.7296078613041111,1.424587209369495,0.02786780405822049,-47.96854806424241,18.440140889940338,-144.87873830497574,1017.7823356342851
186,8.59378549141405,4.377574804389946,1.3746252028471544,-0.005956905766100597,-0.006414006723841897,0.0014697716427759908,-0.6355605107146719,1.3420711294568848,0.03131833818171874,-33.73261270095981,10.843723926447392,-102.45979317385266,1017.6685070341505
187,8.641540255795132,4.227358106033983,1.3225778124842986,-0.005223825680524845,-0.004604768217325602,0.003698684612601008,-0.5868671182852147,1.166782348959563,0.024618933005393338,-23.543786074125318,5.654325747370399,-71.26648166890035,1017.5697654697979
188,8.666636522934661,4.082633280440688,1.3909809180043815,0.0026108481975883344,-0.0016956535806320625,0.0016791537749929583,-0.5493457492126903,0.9940797642218946,0.078084149031253,-16.256957234173207,1.951352810009694,-48.552590728350786,1017.4820350847921
189,8.802796342962242,3.804205431379473,1.464561512223901,0.0018615165548633548,0.003565755294240332,0.005832251827912263,-0.3941281019595296,0.6794837626201433,0.10940556809115261,-11.153508237941349,-0.648205473071727,-32.020474089721745,1017.3960956693264
190,8.885247688620023,3.6864115495196486,1.3859891409935214,-0.0004962552809798951,-0.012475878167999785,0.001023162637926795,-0.3143707495179773,0.560688106075883,0.05046274421035113,-7.183780004821937,-2.5007261276970425,-19.873795852087817,1017.3233770006418
191,8.909271713441958,3.835088262434354,1.041021284022683,-0.011676514519198707,-0.015650381025818887,-0.004313334770274635,-0.2880968677585536,0.6553589950981735,-0.1667476919406318,-3.986693754526714,-4.20277301098092,-10.912801541666807,1017.2613583195339
192,8.925594507083963,3.8727828430646802,0.8106246801381134,-0.017525457618526957,-0.010675304836752858,-0.0033195119851608243,-0.26545256584532806,0.6410153576534007,-0.2967671918306561,-1.649977064475308,-5.59736803619399,-4.289604297426535,1017.2087566575087
193,8.955503339794415,3.744075663342978,0.7461578022679505,-0.01836537479844443,-0.007214289039428556,-0.001404831632943674,-0.22658297376835781,0.4725578644269577,-0.32323383226299923,-0.008399351754079465,-6.796110767480761,0.5427403311550165,1017.1544950644119
194,9.00383929265089,3.5698342820510627,0.7435895146474669,-0.016738241198373176,-0.00446999022938482,-0.0005776035184854779,-0.1751374638723818,0.2801691418416663,-0.3024528244457177,1.1432210605631588,-7.679887733448209,4.04957070274588,1017.1001142224982
195,9.068110581348671,3.427352500915429,0.8028750286719216,-0.013632275233730357,-0.002282060277304699,-0.001273052652165013,-0.11113632290241207,0.13702161321015788,-0.24375402336510743,1.8949079016749022,-8.349962448301808,6.651580990822309,1017.0373195928139
196,9.103732565630555,3.3131473042505086,0.7968782480376907,-0.013535079172748564,-0.0031926809578617637,-0.0009237540255705127,-0.0796665012354584,0.027920033342945155,-0.23743635771672875,2.6233482455410253,-8.816156806420834,8.556015108558965,1016.978462930187
197,9.121081884023653,3.2201675533798535,0.7913142359819285,-0.013334579241636798,-0.002700372709176833,-0.0009647128326473641,-0.06972737750833424,-0.0501105816236634,-0.23318531390672095,3.036964304014706,-9.232056582392445,9.921499242536902,1016.9331982757483
198,9.107454023631066,3.172182128218731,0.860362164367182,-0.011248925644137294,-0.000632294381263923,0.00031447020852264096,-0.09284938150428626,-0.07843890744393577,-0.1735337709391459,3.383872677977258,-9.481047213603885,10.78133757225451,1016.9001621488844
199,9.138041510567039,3.154074278422069,0.95468710926312,-0.008328662222674933,0.0009804310845607268,-0.0011870505597401798,-0.06014364907920113,-0.08456698484426822,-0.10256430274153826,3.5164096575206885,-9.81206290351467,11.55180198467736,1016.8838419719032
200,9.126879399895406,3.1177844994007056,1.0301228139762715,-0.005848011099662837,0.0009865150935423408,-0.0005861774656948351,-0.07334244346568046,-0.10520059377495843,-0.05113278794634296,3.5737959909244275,-10.053673263336337,12.132705260256664,1016.8804639462205
201,9.132839042853403,3.097468007407892,1.0887803998663532,-0.004300646136888743,0.0011590805687951404,-0.0005889271175949076,-0.07109553491116831,-0.10992552570549044,-0.016487766208684064,3.615870490698204,-10.18062761227037,12.504598891866546,1016.8808221878863
202,9.13826980882244,3.0901133791199484,1.1250370887159207,-0.002124208764144891,-0.0003158264596159334,-0.002512750496890907,-0.06663631443148281,-0.10861940306873001,0.007712437366026399,3.706921541528243,-10.28301190004265,12.908548176784112,1016.8810836483408
203,9.103411258943842,3.151104334812043,1.1138884793031532,-0.0026934665559649007,-0.0015432862662911224,-0.0010896152770249745,-0.09908475199556378,-0.049140964744443544,-0.0017228355785317423,3.754078466883932,-10.422889795199222,13.2116360734165,1016.8776468160163
204,9.087934612126496,3.20251780616936,1.1208017667991146,-0.0031766938554505185,0.0003391668260950707,-0.0005757466005355296,-0.11635663841404334,-0.0022275460602975833,0.002091779934526995,3.7999660048068025,-10.542229864990695,13.455555557173913,1016.8722117279721
205,9.0729146145732,3.2006698696252793,1.1808424596885134,-0.0014390295485776027,0.00216540480957785,0.0006686319560277148,-0.12753896680022478,-0.008203888717022604,0.04322914529378669,3.8093880321008604,-10.625950706978555,13.599889081640429,1016.8653182254037
206,9.013215189982745,3.131547356086801,1.5403788334852802,0.009477638028350638,0.027756418081582628,0.0051651734519683355,-0.17467583241001736,-0.06558803573721479,0.2893062129924565,3.555545675370485,-10.523241980093704,13.6225757835966,1016.8577105655833
207,8.885022686832942,3.013325528892787,2.150426983955807,0.02569966104732006,0.03646719858391469,0.010325188100427169,-0.2704757039606147,-0.14990033156355265,0.6628448949442268,2.7996807495815403,-10.067883796801716,13.594934207587901,1016.8521581623211
208,8.758218622748856,2.851269257963367,2.800763835073937,0.04281851259917603,0.03911566338428951,0.015789518337539794,-0.3567550316943152,-0.26448970654330617,1.044787131668333,1.9726666223213838,-9.210992014933796,13.462293114762433,1016.8549280301094
209,8.636508358306852,2.721246089742515,3.267638417138394,0.05435330207498408,0.036925003207591386,0.020043514711939943,-0.4499747553268726,-0.3492262940600829,1.3054157718707353,1.4302033774065452,-8.080344455356773,13.406355482856897,1016.86663713251
210,8.592361792855312,2.6331964547155784,3.612397653912767,0.06293194985313545,0.03083793508120625,0.021412916084306427,-0.4774991128286878,-0.3880905811529609,1.4985080214307978,0.8896915661224616,-6.870560156178343,13.14689409297485,1016.8836953002417
211,8.586923052088673,2.5948515471432057,3.79437179622996,0.06879130292242974,0.027070995048860826,0.018738179612871914,-0.475695989314445,-0.4020020286001526,1.59426102821057,0.5677335664614377,-5.599283291774371,12.79917819398538,1016.9058118275706
212,8.593944366852798,2.5463004165592933,3.9558380162969753,0.06957419508326025,0.03231202075762657,0.020606090468226625,-0.45024801468600767,-0.4403191647178117,1.6574092304142998,0.3381594082907978,-4.366093822000551,12.493088903392067,1016.9347737006909
213,8.578729317777158,2.5477183611384664,4.076053862448257,0.07270612542189248,0.02921967711761876,0.021758057842886275,-0.44946577843500246,-0.42554110511032345,1.6868458861858593,0.20076585148150328,-3.161202796608245,12.03508304568139,1016.9608373722476
214,8.552186507885219,2.5508325347621237,4.1770140625140435,0.07472473591915425,0.029537447736551162,0.021869809994071884,-0.46075087952774946,-0.4132115746616627,1.7137522808754282,0.1256591975040446,-1.993511894285994,11.509825453663565,1016.9839820946661
215,8.533337767254219,2.52327905225634,4.269690993529567,0.07685148021201499,0.028172396689840104,0.022149660601914183,-0.459473392469421,-0.4456156320858338,1.7349409970733907,0.047972905912275085,-0.8477610692718347,10.85209256249241,1017.0118392268786
216,8.526484125969654,2.506631730293334,4.307674891970582,0.07740318825307663,0.02840833151113732,0.021986104806745163,-0.44447667752043873,-0.47092695646383864,1.7048403537557995,0.06572972281102624,0.22510074729790408,10.124947850074141,1017.0431359522627
217,8.49672623357401,2.4817289789726678,4.326622597511981,0.07837151844280911,0.026032705058879748,0.023077333871745268,-0.4520583091053472,-0.5106924921159064,1.6562700843425866,0.1814599218736107,1.263297061764916,9.239104185256437,1017.0708831693681
218,8.499919521371673,2.477044280935321,4.375142832263654,0.07942201440702197,0.027600410012416532,0.023284861491339185,-0.42189424266045006,-0.5276121574993947,1.6298038524916623,0.3143831359756004,2.2673733967875487,8.305602816972605,1017.0963488586119
219,8.475788237576644,2.466684175248747,4.364515646961332,0.07915645845850723,0.023132826784033184,0.024025930431297415,-0.42011952491692395,-0.5578274884968356,1.554837652435053,0.46057718233758627,3.1302286059715003,7.223569956191796,1017.1184182279128
220,8.506275003788822,2.4785799628696106,4.307114640080139,0.07723866133191583,0.023848154642710697,0.022796488088937104,-0.36663541161534624,-0.5718767134144003,1.4513351828192946,0.6997340486503295,3.9381100752799085,6.079357963112759,1017.1346592824079
221,8.51270704390799,2.4350725744037227,4.291187652443745,0.07746429760349455,0.024475477263197886,0.02358553519208168,-0.32889356149333054,-0.6491317631615493,1.3772087673192241,0.9931632411487412,4.636592211307561,4.915051023362189,1017.1466465775469
222,8.548946110054224,2.4110100951950106,4.287697328541699,0.07788185485725244,0.023208904049348264,0.0219247455610171,-0.2637945759313781,-0.7038962163348341,1.3186548488102507,1.2610168174748002,5.25973467488245,3.699277419134705,1017.1566116737064
223,8.654532753160812,2.3775131628247372,3.8681929457433997,0.06602589940377224,-0.011558557033693913,0.01860567292299889,-0.1650698377355992,-0.7750271737064942,0.9681255793545711,1.7016781398887826,5.715065444752023,2.551445070006711,1017.1707482259552
224,8.830584346017819,2.4629312276132604,2.974721393362634,0.042134303487457614,-0.023948134269455405,0.01016858209635394,-0.05014441691134604,-0.7420549708823481,0.3711114995765764,2.334274210010443,5.94641446871084,1.8688250024226756,1017.1881970143244
225,8.875913515065934,2.617439634923825,2.6260197224161264,0.03135023571999846,0.0022749366543724746,0.008542426951323108,-0.0218749773492041,-0.6175961495713767,0.12498215766379447,2.746862985621521,6.129955529965473,1.2618829249572483,1017.2107636991446
226,8.888371777171246,2.7803857329472534,2.5736150428417117,0.03038907958928366,0.00854391962433831,0.006559335082831581,-0.01164338998495416,-0.4809667451883858,0.08538856037919615,2.961228006607846,6.288559052798827,0.7201462027138095,1017.2301193923784
227,8.922654025864876,2.848280530103837,2.481475116366567,0.02869852322691908,0.0034575517866733173,0.005523431450183309,0.017957985408078483,-0.4293036986236616,0.020613268893249104,3.142511833373624,6.434416371051368,0.22444971896708438,1017.2442460248499
228,8.949209202609032,2.9562859051361414,2.2069141944890003,0.020089726897234598,-0.001062831959597452,0.0032526002404993305,0.03937211722872942,-0.34839180052585034,-0.17299045643127797,3.4685415426048336,6.446279663866743,-0.11209187786151642,1017.245116191295
229,9.003448820497868,3.0369536130949104,2.041993814334827,0.01502217988037792,-0.007931193050628421,0.0016218644721615826,0.07612620827582417,-0.2922628609715482,-0.2856919754578839,3.604486594254884,6.4880798091266465,-0.43025446862145367,1017.2357341546896
230,9.024546403479729,3.06688276950834,1.9466831042184274,0.013058770309799619,-0.003651237611895444,0.00013054598256932834,0.09565517066445017,-0.2881058040171497,-0.34270157807054846,3.673721653088365,6.428548493752407,-0.6699075503733707,1017.2199207891936
231,9.057633366079585,3.1202234208816946,1.3580055825361947,-0.003943172759130505,-0.02946774416560099,-0.0029546672211977964,0.09838789329888135,-0.2624762942612057,-0.7384390236762872,3.8619794454064778,6.360504666756897,-0.8288574427224205,1017.203267876932
232,9.082061472797884,3.2154464797400264,0.6888794317004312,-0.02276044750566992,-0.02900060354108525,-0.004510206731040969,0.0865154819492319,-0.19131515705668234,-1.164532589630176,4.109541053571867,6.2667443768722455,-0.7421806221200267,1017.1896298842919
233,9.09920360996052,3.275949888533811,0.2657411781251308,-0.034949505499751524,-0.027876740919158535,-0.0034974407178430247,0.07300006205321785,-0.13549150813074287,-1.4272784193630235,4.200377689317623,6.093649606182723,-0.32417857584828563,1017.1754097030268
234,9.115972050610385,3.297227380014489,-0.07386967154853263,-0.04395529892551132,-0.027268004115050544,-0.0037967862750365932,0.06288615005452464,-0.10173542786010742,-1.6400827933535527,4.297899162548959,5.902433749335838,0.32438988265960395,1017.1593838466115
235,9.12873772182003,3.3143782424367374,-0.26558818162058634,-0.0489356497031666,-0.02190338574114182,-0.00361398837029868,0.04964484794927699,-0.0642288068404094,-1.7402205676657077,4.312786776886808,5.658408746246315,1.0948946504762243,1017.1425963810447
236,9.158288450638809,3.322979943835308,-0.23112295395687282,-0.046687975020767464,-0.015551061255359204,-0.0046124666211694075,0.06453481141379272,-0.03518695463984527,-1.678731891445779,4.301683749811024,5.385014617840539,1.9120853023820477,1017.12428454975
237,9.123293808829656,3.3304164371432297,-0.2378333022092859,-0.0458141419567561,-0.01620066770369373,-0.002752164943318802,0.013099257559882706,-0.005974016904660252,-1.6422063068434016,4.274959122951818,5.129827711716993,2.746559896250945,1017.1054474892027
238,9.100629232605078,3.3150839771322897,-0.23834314005215113,-0.04487862069095146,-0.01789856832340778,-0.0012306526926472456,-0.0303301325798477,0.01208647369587414,-1.5919158578348211,4.519812012094326,5.118019249225986,3.003349703874291,1017.0862270933479
239,9.131971788824806,3.319986312668688,-0.38019229685437717,-0.04981545921856891,-0.02111110865053533,-0.0024723839655576433,-0.02012665124274548,0.0437466828483722,-1.6581999407263597,4.661413753942557,4.675993949988982,3.434452640654685,1017.0621820846479
240,9.096345858680877,3.2615438509266967,-0.4198379692459325,-0.05079544958416028,-0.01659897771707049,-2.1344978822784508e-05,-0.08023860660327517,0.03535679343854221,-1.6482696238688115,4.701694182694729,4.449166749286057,4.4496436089068645,1017.0432108821135
241,9.170516778377431,3.2321823935849014,-0.35994002374211476,-0.04882310411794616,-0.010364619258149164,-0.0023344792153716224,-0.024567630441407314,0.050894932370612905,-1.5720330280148787,4.516099017139881,4.140608327869611,5.310368938254556,1017.0270974467041
242,9.206351131353392,3.1415163869687373,-0.1470561713285505,-0.007517210196412605,-0.021720723601848693,-0.0048284256137700494,0.020096126122916724,-0.06558349297710939,-1.3465183160625314,4.121250496652745,3.9054879056558836,5.150740023517951,1017.0153371559653
243,9.21318758012151,2.963358672804152,-0.0007137631217926377,-0.007645721809179608,-0.0068895799936021344,0.002300104295259265,0.016386677741729465,-0.25268091662565384,-1.0889066673264038,3.35855604319483,3.9781389365988327,3.44909647708676,1017.0152252691586
244,9.290968435195166,2.7850638980655504,0.11605615999902283,-0.010445020875416919,9.064018890874923e-05,-0.004422349674317245,0.07845071858012403,-0.415855364637293,-0.8909243475736479,2.6714116042126657,4.100478724957754,2.0040681949663552,1017.0363319609648
245,9.344554843382642,2.6639803067354744,0.31636365764763363,-0.024199215484875677,0.011800159652085095,0.0011331419762994508,0.13997667083957493,-0.5400032719502105,-0.7411247511402209,2.0490955997005362,3.9734044271265114,1.7591383226743231,1017.07706801623
246,9.39151139955078,2.4547495774335335,0.5080284494616321,-0.015900500240397297,0.002587114952067815,0.0020516187999161466,0.1832282991656671,-0.7091516286280404,-0.6381816283597457,1.5500737216865943,3.7564200751834926,2.0267566502816914,1017.1323981652864
247,9.501037785411025,2.1608733840037258,0.4571186011883173,-0.010759186787901068,-0.011073071342835077,0.0037538448323217273,0.2663579018636967,-0.9485643416637097,-0.6488887898599822,1.5228883813185963,3.6409080706377575,1.975459715842689,1017.2052843755027
248,9.581823910014188,1.8086491938826554,0.4781141164964413,-0.010068471549148313,0.004757999772627398,0.002324202477172361,0.32589747748502,-1.2428913893577382,-0.5745731789546484,1.4939064387908247,3.4815545465822173,1.8469151038225184,1017.2980742878375
249,9.673250670341844,1.4687106482107564,0.6203264993203985,0.0006023447379075453,-0.00044964280018772434,0.004981739762432019,0.39455785537923477,-1.5252659137233353,-0.41262904673673606,1.2853349589363297,3.4294502066423282,1.4910205880817164,1017.4085648588574
250,9.724930921648077,1.293957958865959,0.6684607282249357,0.00467216684214352,-0.0011244901251161502,0.0004421464409818778,0.42065239356525325,-1.63955925547154,-0.3001923238903458,1.2003076778754709,3.4744389080869547,1.4831563209613767,1017.5277694343829
251,9.737117176009132,1.3129666695284834,0.40343619046121054,-0.012451222549538465,-0.03527565208281463,-0.004216605505122793,0.4091689669078781,-1.5799036024443556,-0.42136851567172817,1.1967285436574056,3.3804577061425314,1.5236026087415362,1017.6527154843974
252,9.659209817137324,1.5540387725953235,-0.5120322711882412,-0.12454363747579143,-0.06822051511247859,-0.006681266484493494,0.33511315480606896,-1.3829635422717215,-1.0640161861944528,1.455369966008405,1.898387953697561,3.2421363546467195,1017.7733600936948
253,9.447121568002164,2.150639576719533,-1.2945976867218696,-0.21725211119330284,-0.09738963500647466,-0.009208684031212508,0.14083693075060474,-0.8564297550646538,-1.5602744809013709,2.7025864859386712,-1.4397253677938338,5.891857888686644,1017.8684608633199
254,9.203469716568447,2.769590639638595,-1.7367857187108375,-0.26692838706043875,-0.07476521765310201,0.004476798497510056,-0.04895811409214426,-0.38419021205063325,-1.7232848715763396,4.014556713515276,-6.0523776998656915,7.511640016647384,1017.9449186202353
255,9.086767444332084,3.2025381452874537,-1.2865142216028493,-0.22927873797386206,-0.07864972996245752,0.0015023479163462613,-0.12110461355004913,-0.09242758056111161,-1.2917059402593032,4.587020641830904,-10.294713265364635,8.179418901889964,1018.0007208391743
256,9.046321508370323,3.4870955148117013,-1.0311156636973366,-0.19693179578354714,-0.06271688781123923,-0.0026286164401990945,-0.10506684308622011,0.035623576400998724,-0.9745723295276394,5.138603216324794,-13.777981367448776,8.562824536651975,1018.0385416716596
257,9.000710671973264,3.636663379851416,-0.8649092091930867,-0.1777025319801264,-0.04815238077854302,-0.002896217627052685,-0.08390842800196413,0.011844901507626831,-0.7990668837070749,5.763717630527193,-16.6502145084768,8.18702342467865,1018.0563131762922
258,8.958532891740404,3.6709640320948935,-0.42379401806999906,-0.14816460673103168,-0.024461934028279786,-0.0006714264088633569,-0.0731405143047747,-0.07829805132838612,-0.5339305638718327,6.026030430294418,-18.933995621369377,7.551943351805572,1018.069283598554
259,9.028028363589678,3.492571328393929,0.005640557178790917,-0.09173661996753467,-0.03392792460492639,0.0014905219098974476,0.03392259472301816,-0.3406552460991914,-0.26952082904565866,6.213929399651315,-20.598838790334824,6.452900634652129,1018.0791003732779
260,9.131949577183606,3.126798821217033,0.17834395077951395,-0.06479655070499471,-0.023676833500443063,0.005073869468841575,0.14255161353057375,-0.7309220429513662,-0.029965263946417214,5.91190246697377,-21.470872920937094,4.745372740754925,1018.1295900370275
261,9.270567339511041,2.7340699319404074,0.2945975011814809,-0.047602068615729756,-0.012446638938688102,0.004239929871101419,0.2683148553936853,-1.1193477067537652,0.1308719691463732,5.69285444216362,-22.02625206018804,3.5375138238146357,1018.2072707441858
262,9.35985319599251,2.4656563997031213,0.4286285315132258,-0.031794279050817026,-0.00888553671335275,0.002738462187214335,0.3472933215018509,-1.3723345071403443,0.2703503354628779,5.517098201425664,-22.4526981503483,2.645833626231629,1018.2809078322779
263,9.392657556879367,2.3758506706833975,0.5118605421446207,-0.024701407643671423,-0.0055639775788767845,-0.0015245483066201526,0.37338344419017083,-1.4576440596730347,0.34293293961836,5.313972324190247,-22.894240785439468,2.077921045185963,1018.3502334735861
264,9.354785328744173,2.4702297142835774,0.6591870068589749,-0.025478488308010624,0.004564083971405482,-0.004812518795937108,0.3503202090256673,-1.3917055778931609,0.39767701337728845,5.604665780190199,-23.18468549819713,1.6143966895536361,1018.4008303622528
265,9.348548584022952,2.4758409194964797,0.7763899688261413,-0.01974264635188238,-0.0032716955342220744,0.00039716923752594613,0.3456190252960527,-1.3883367288426187,0.4271360439669262,5.247586854255941,-23.54020175754852,1.3922108322733513,1018.4263189626656
266,9.40001734919221,2.3478929042613723,0.8262179543973909,-0.02878094761281566,0.0031013242306393417,-0.006655433714890153,0.3993467669136676,-1.517328815989586,0.4019455082854534,4.529457047593527,-23.86053755087641,0.7253617972684485,1018.4270311045262
267,9.437147189265094,2.1848823725373743,0.9914209840508983,-0.013190036515290039,0.004590023051807961,-0.0033269234377004114,0.44435625283509766,-1.6857173771631737,0.47334498572943273,4.539087661575775,-24.658541471466958,0.07033213603503075,1018.4275508568395
268,9.408554734033842,2.2274612589015126,1.0882587329052658,0.0015365348833800713,0.011264032904316537,-0.0010419307735094157,0.42161742501802335,-1.6453895554286198,0.4974022347615377,4.968311085116527,-24.831086618096705,0.6323850141886483,1018.4301768138946
269,9.163456844538883,2.846887470177829,1.306507138999129,0.019529300316292755,0.017038840896768076,-0.0015892211388696417,0.19190694209726283,-1.045039386881289,0.6097771638459925,5.328446120841859,-24.934903033917536,1.6775266026574838,1018.4320933523392
270,8.941362019826348,3.214916284546224,1.798711293895941,0.07865156991920716,0.06309743920425581,0.01813761384059168,-0.02507778154885862,-0.6506517209281062,0.9514838705360292,5.09319472969043,-24.64125775372889,2.9692124916591682,1018.4334921260177
271,8.657939772937205,3.202572382301496,2.6229238408630033,0.18844044726370385,0.10770218625564333,0.06596691045620565,-0.3513182819571824,-0.43444291110565036,1.4865025924832667,3.6202776785113597,-22.465226529991927,5.205071332853146,1018.4308442909406
272,8.436111785922737,3.3006616146137078,3.2863108765993267,0.25154692254370814,0.11106703431093644,0.08755161089304682,-0.6297573700008073,-0.023233111230582526,1.8399928249328483,2.0101824745195374,-18.5973330459985,6.6671174704157625,1018.4227695133245
273,8.418499707364578,3.395873238085936,3.311226416574826,0.236119801064858,0.07015874000746401,0.07884456862070237,-0.7112269747531828,0.3358078698541382,1.7240052252267741,1.378942968061604,-14.401599760640575,7.120009267208182,1018.4099302006775
274,8.555922835150309,3.4387191941148476,2.9895408967667705,0.17418150388000014,0.04954652078454813,0.05015126832414207,-0.6438851752911164,0.5790853296786208,1.3942558167920367,1.3487117956021755,-10.847035044168816,7.565245582989183,1018.3935721878345
275,8.5368751068429,3.690563784179005,2.7312727264267638,0.12447983764754131,0.028856151638843596,0.03818257414278137,-0.6973785788447007,0.9056268417369084,1.1463794604778266,1.5052302443247354,-8.564636280073453,7.45265213108573,1018.3752439292078
276,8.682885749064544,3.5893440271568187,2.3467104127168485,0.08165556151671104,-0.009472087997610418,0.027083292883665275,-0.5934432138207011,0.8686164168154393,0.8531472614469665,1.7264099690619135,-6.812312921689103,7.562925340585673,1018.3564259472387
277,8.774510784487909,3.5878582730452226,1.7280624909017321,0.0280651425300108,-0.01622716917081527,0.013417850758580556,-0.5288802156020791,0.8878558642650626,0.4425834429808439,2.0664413013726466,-5.996123293560765,8.096141134121714,1018.3364876225877
278,8.848729782219428,3.6080279959136496,1.476376406111457,0.0015265866155386061,-0.00722093559577373,0.009725444473960797,-0.4800590643611867,0.8937039067323947,0.26477890651568814,2.1570649791701553,-5.768368927279234,8.692246889013084,1018.3174425220797
279,8.927455248834486,3.5240160997411536,1.2645738793217347,-0.01700041723193955,-0.011952180538950606,0.004755541110705059,-0.4056564000265711,0.7825343457809526,0.11230243449457206,2.2589468388917524,-5.88300602332989,9.334927746621343,1018.3023471325421
280,9.036699506444279,3.279872659826407,1.0891216948853275,-0.026782767279734193,-0.018410726757647974,0.002387054676001867,-0.2987626051668006,0.5212438514381483,0.0024470824292014276,2.417907073705341,-6.231181686716304,10.167915915586034,1018.2908557321068
281,9.049109417233957,3.2896974804743455,0.8934361344645545,-0.04244805922139183,-0.01746404785190682,0.0012121703328229338,-0.2981759486724432,0.5235266598443478,-0.13318919050879308,2.5979690340071646,-6.687704227684915,10.659249198460099,1018.280655246232
282,9.125673717601371,3.344913233194586,0.8719431536605089,-0.04609059129028053,-0.01456316104970172,-0.0075223550534769335,-0.207417145517288,0.5338307022874118,-0.16466471788278947,2.706288918189433,-7.512743508072322,11.054349698517907,1018.2722003709041
283,9.097403272544078,3.332863527284166,0.8722300625314282,-0.04244052548423069,-0.01633619140057888,-0.008862735228803195,-0.21850952646289046,0.45766712159658646,-0.15959725254737583,2.857905285212974,-8.241845165892528,11.185564849444175,1018.2632883575848
284,9.103220223227426,3.256446321020381,0.8643476607083445,-0.04960492884450642,-0.0009144599083045213,-0.003710474600751245,-0.19367152371921859,0.3216848431242884,-0.19844859172622306,2.957783026207154,-9.006413355575875,11.431946974532508,1018.2499617252056
285,9.050593453279253,3.264019446355825,1.1376094859308117,-0.03622720783152563,-0.007500249552188395,-0.005402698901707419,-0.2164272919251538,0.3029073565665184,-0.08913575384000269,3.0122449273200687,-9.477896745828774,11.293209533235538,1018.2335984376899
286,9.028488432556914,3.2534405129920363,1.3334315447129943,-0.03493280251022474,0.013289578652058574,-0.0025021076031117207,-0.21071232714498922,0.2898841762429775,-0.025709308926766566,2.8730554231016776,-10.028365440120107,11.260719086053268,1018.2202851564024
287,9.034931693909328,3.0984135949266913,1.4899839674386604,-0.015105445802793709,-0.004738694251884806,-0.0047501639551023305,-0.17549150748425155,0.07753744929075215,0.056263122491162554,2.5610461034926457,-10.305370977283818,10.589836858045597,1018.2091979032141
288,9.07714340328855,2.982149464215748,1.4541824526334794,-0.02857262135028727,0.011590709422962808,-0.003297356847141917,-0.11639123023860824,-0.04601784550178925,-0.053462021050868,2.597100360064634,-10.530555897072555,10.456526660999192,1018.19844706291
289,9.029558860417328,2.9753427483407524,1.750101770925605,-0.017105168087125255,0.013264031750075563,-0.0027468913093159895,-0.134205627131813,-0.05394579544461027,0.07913155563887869,2.3995739433001244,-10.87700657639256,10.360223461479281,1018.1898585097829
290,8.936124599657912,3.047770948760151,1.9208161315732983,0.0008256424797823195,-0.010819989604122084,0.0008213005604495063,-0.21796178417307166,0.0018174505891443843,0.2233131018263,2.2916221083692307,-10.997326810808046,10.737590438863709,1018.1823742345243
291,8.973661420134784,3.11533715350921,1.7954275688590138,-0.0007958444877430614,-0.01067234485062766,-0.00645518535940625,-0.19676093929585947,0.05299717590450628,0.1970447660260359,2.5060838854273033,-11.075907050626585,11.256706787612874,1018.1768708189741
292,9.03126826908837,3.0311843662051228,1.4182859430789274,-0.013527164504476875,-0.02482566912433651,-0.0015203646080095218,-0.14211935628778463,-0.09825658275482557,0.01721546834817181,2.6605838508551556,-11.209441503451036,11.325260878459165,1018.1728541853213
293,9.102569321997121,2.9582367219606014,1.3885411160675933,-0.015662641031270425,-0.006708566015578964,-0.00045777260735080046,-0.08697138878907598,-0.16304185348904499,0.03784099388326201,2.8187051931893494,-11.515986839597504,11.70912576035761,1018.1699842658169
294,9.102132900534459,3.0700332072257,1.407229065924744,-0.011623686604979038,-0.014102572486192214,-0.0025493025543567513,-0.08562817910316521,-0.0724148426136063,0.06163647936867396,2.992345972205198,-11.849844272339253,12.000939717970073,1018.1684051309464
295,9.134020428188991,2.9783220802862935,1.1383868890529363,-0.010528821475770729,-0.032294007382710405,0.00042973387268572345,-0.05695658182757299,-0.20033352241752295,-0.08654664979320491,3.115096941076244,-12.111641627774905,11.682487207509752,1018.1705298741769
296,9.279490236973844,2.639511570536255,0.961911664819068,-0.022893055514519672,-0.0039748073872770615,-0.002799806518723696,0.07874641474046998,-0.5617116529459208,-0.12027734165718015,3.1343610167277642,-12.2156448923638,10.985362979859463,1018.1764501113958
297,9.218529003911492,2.9082521430620765,0.8095443360322689,-0.03628569668728669,-0.016744973942525013,-0.01031541648388269,0.023744235003880572,-0.31201236330989957,-0.2611778205019063,3.500663799990985,-12.544081321341597,10.617223563506876,1018.1807709597542
298,9.085054916678608,3.3165751768848986,0.6310618701885876,-0.04842074485551507,-0.027489778585908047,-0.009254606028921496,-0.10026438799195744,0.044301009744408315,-0.39399045229168933,4.0323212870120155,-13.579929007287765,10.663844447895267,1018.177926495872
299,9.02014651976338,3.606877692731244,0.5340548625607512,-0.05346342885376649,-0.01339091120988654,-0.009409582790088867,-0.15699355816568905,0.3039069774251062,-0.44065680015071984,4.4488494013916355,-14.532972464447289,10.96170009222714,1018.161175325992
300,8.890064490284876,3.8354661087057855,0.759339599805798,-0.04269566489513804,-0.008268033136009843,-0.006716403172739135,-0.2716570261488851,0.5012534137328382,-0.29291116039221043,4.382404159913884,-15.404983780759334,10.966039356359012,1018.1323163409024
301,8.804664568893177,3.9694704809804344,1.0355519623336331,-0.028295938424032628,0.009061212277019517,-0.004723185771134761,-0.31581189696807077,0.5668983431638812,-0.1260435669637372,4.263719448269432,-16.055477623741396,10.958517504566162,1018.0921059280744
302,8.847152716171466,3.7485602804287828,1.3209332907583695,-0.019317486237165872,0.000972300834057636,0.0010499809991041395,-0.24674345678606313,0.3365538319497169,-0.006134313839699451,3.8005939810767084,-16.518761656498157,11.31330453942193,1018.0524322920893
303,8.84461920111196,3.7656568322794812,1.4036780568323857,-0.014824453639747995,-0.005253152663634785,-5.4645501543082106e-05,-0.2361834460580895,0.33593796839701706,0.023327530866902594,3.7316792999938193,-16.85832326220071,11.557463271686284,1018.0131504193486
304,8.895634859537145,3.630607896412149,1.3593414398072214,-0.009404342266085646,-0.009570047618888508,-0.0023151844204518613,-0.16919665344975904,0.1563447168376029,-0.01040746535177602,3.8686124436639693,-17.06167997124881,11.672168255846039,1017.9704858862991
305,9.012235453263406,3.310761560409609,1.3624804921232818,-0.011802788928779406,-0.0015304300111149381,0.003228096799613245,-0.05905342858545981,-0.15169312529917897,-0.004927649224942282,3.9151040915071156,-17.220262644186143,11.80383463574809,1017.9393474418796
306,9.082787136866422,3.0545855473812416,1.452616059615099,-0.005060547661388335,-0.001676515115112213,0.002555816273893426,-0.005052515563831517,-0.3615062924860455,0.05737147157887335,3.818984766428629,-17.29743531735822,11.970325876226209,1017.9198158388534
307,9.109866853662702,2.87665184214907,1.494517153594906,-0.0008832385249391466,-0.000970824681583052,0.0036128318917654106,0.00022935976576881484,-0.47824114237255566,0.08449041193196294,3.717449192226525,-17.2520437748771,12.048034983232506,1017.9112494990659
308,9.128756898869222,2.853292498019232,1.5286994425602387,0.0010877001810660073,0.0022698322519755774,0.00165656236496689,-0.00028451032179899985,-0.44401086143836366,0.10420572575541326,3.617807842236872,-17.13562888944366,12.042478055594755,1017.9184155279163
309,9.128237860909678,2.806704507157949,1.6249805480258808,0.008474075788713748,0.0047098192619615745,0.001959213782225716,-0.011520685516822737,-0.45068449656222925,0.1780155753020493,3.5735213888776296,-17.193388512462082,12.108793728678844,1017.9329206126242
310,9.083814182741271,2.8489160656221926,1.8557604725254506,0.018757768636279967,0.010379278393541271,0.0036585233080902923,-0.055785288074665595,-0.3698285348701926,0.34257922732882673,2.4460180007554104,-16.18313625865449,12.640903713693538,1017.9457331457804
311,8.989645773598879,2.8969252653541777,2.0951563519931797,0.02771593585845754,0.018820337482616686,0.007731150234278993,-0.14520456942836169,-0.29251306226879353,0.5002773287866031,-0.9153434663873603,-13.197255850614276,13.69059187923466,1017.9550842935147
312,8.946966140148971,2.985630717899624,2.2819951906634444,0.03325508161226495,0.01954870644345375,0.007303270392830294,-0.18332481950266502,-0.18309216144478047,0.6082546238860013,-3.3966739022568557,-10.695757131337038,14.536151330132293,1017.9581991153427
313,8.889918688579735,2.9725415466220957,2.44544717811079,0.03770479103543127,0.016092101699457,0.01016917191238934,-0.23606308616949623,-0.16780481248206236,0.6880096537744121,-5.423727131645679,-8.628422357184128,15.164882338436449,1017.9555669522099
314,8.880379488342841,3.0078485990087307,2.5487064627345886,0.039341418642488545,0.01970321286409744,0.008571577995351425,-0.24280087761983454,-0.10812800241586198,0.7396396043088797,-6.924614555547894,-6.911188832671962,15.697611957964583,1017.9485342586132
315,8.851424832820268,2.9655845163832635,2.6650621580578275,0.04539115340254621,0.017892092324593364,0.011094139529892001,-0.26255240232625177,-0.1498597186571401,0.812094759068817,-8.069475211330058,-5.48701187667426,16.19278669259014,1017.9400004943267
316,8.867430327624366,2.910367769574836,2.824667959983204,0.05078726366689868,0.016842713369641334,0.010735537345942108,-0.239933651022789,-0.18996265936539866,0.9137856423430918,-9.009113344558058,-4.139155031474923,16.542629457377835,1017.9316082282157
317,8.871618429274003,2.774090460666737,2.9044863464268302,0.052657987925148475,0.02193524456082807,0.012293850235910873,-0.23162824882236618,-0.30511557517122845,0.9434089625992792,-9.749218059480935,-2.8203511079088077,16.744224248628,1017.923957882954
318,8.93707243227848,2.7456718097373702,2.8845157146335847,0.0484130624967466,0.025009612384183175,0.008634374297403569,-0.16001455302706563,-0.31498622728278647,0.8879623737211628,-10.282762996288293,-1.621328087086495,16.734557926334748,1017.9153031901712
319,8.821704617355367,2.6894149044420512,2.9504789885205254,0.05107156838044659,0.019101932306386068,0.014793093825146524,-0.2654751657264591,-0.36301879894595046,0.8869977820352261,-10.750578671087464,-0.5628619484995527,16.603238093756644,1017.9068739948287
320,8.852544344720044,2.696988499129602,2.916171726070865,0.04980594223218918,0.014435020373021999,0.013002478234806273,-0.23921328228245836,-0.341201684813403,0.8428250465313505,-11.014119140172124,0.4997663465089115,16.669119137278866,1017.8986093773922
321,8.818348425338211,2.7014297285375704,2.989851233359582,0.04867387355448662,0.029370076172011067,0.014636558842063836,-0.2674765391151762,-0.3181628747637759,0.8602973812447489,-11.267949682222756,1.5724926059045026,16.541865468970254,1017.884332870421
322,8.806013544330177,2.768010569182193,3.066666925167833,0.05327157683776835,0.017018405841060315,0.012306363594533175,-0.2598171923191782,-0.26687191270238336,0.8781934161262267,-11.543907536389495,2.383926835472152,16.37419901747327,1017.8644321182362
323,8.809799544229778,2.8389420635181173,2.8892231303151896,0.045254572358482514,0.005294712306545608,0.011979916798418297,-0.26364582753633786,-0.1934396476866502,0.7282828660686288,-11.567522195824365,3.2186380436631583,16.25320526372571,1017.8403852117191
324,8.873405333921136,2.8711139123997533,2.6546308510858365,0.03479506126437107,0.0032375727919362733,0.008562081323880172,-0.21509988966883586,-0.15410094497686622,0.5448065744729327,-11.455224418550394,3.894092847860299,16.1825910218564,1017.8161772668446
325,8.930809330986177,2.873507806749234,2.441531667187941,0.025724875442001208,0.0008578737864761688,0.006262188716181815,-0.17005334429798133,-0.15085809944228185,0.3816534042749915,-11.36765982415618,4.404476353226086,16.117880681309835,1017.7922640475049
326,8.991755444891204,2.869929114882291,2.3066136732516083,0.01891551092801552,0.004651930401209894,0.0034248991022639784,-0.11341667448425449,-0.15667156387484962,0.2652945138979074,-11.289560974944802,4.711989883083754,15.947178782153555,1017.7745431379534
327,9.00864931534566,2.840367137914599,2.2482109419222636,0.016724803293238243,0.0005676004662613383,0.0025284487964780146,-0.09572098018258374,-0.1893032689266511,0.2025671116331451,-11.250256706912921,4.909417804442113,15.737320657875118,1017.7616096421973
328,9.006476402421955,2.8033797797550997,2.175384514847269,0.013363578986527803,0.0051328458887205716,0.0032742901685264268,-0.10279757948458319,-0.20904901841816959,0.13884901535034327,-11.190530964639121,5.199256239856488,15.646980026014784,1017.7565399873879
329,9.058486260399054,2.7835246921858854,2.0095524604460153,0.019463779581243977,-0.013567857899334275,-0.001530280737805805,-0.04808755105447608,-0.286372135750719,0.04195519936729182,-11.240421328906443,5.420776369646407,15.103784731080218,1017.7548804211856
330,9.115894354156678,2.676584464500837,1.844436394305822,0.008243892083706194,0.0010661038875777792,0.00046416537255508953,0.0027193268766652554,-0.42197937248024664,-0.016067366607008256,-11.535378421953588,5.704724125972302,14.373625459504055,1017.7636244535094
331,9.104958491259229,2.761089618332385,1.6876800631258306,-0.001296010973690389,-0.008621276398703156,-0.002665716130659161,-0.015171724168840276,-0.3548166024056882,-0.14530591104967158,-11.340782184221567,5.726471311189232,14.505759282363023,1017.7794668315676
332,9.05275654038826,2.888114610547758,1.809618567999313,0.0018790915884559331,0.014241598980021914,-0.0005837283714891354,-0.052705015148740555,-0.2310634975650933,-0.08023832392443087,-11.35624385699184,5.596071203508043,14.682058510663769,1017.7985318009424
333,9.014904014191336,2.963328684931247,1.8836123952258743,0.0033822133603952182,0.005967749420360241,0.003256983905692526,-0.08722410583832498,-0.14912142960041275,-0.047468086510893515,-11.236235778309135,5.671234390991721,14.669690167250973,1017.8167538912098
334,8.996653847919708,2.9317970660503727,1.9110234219059588,0.005290763964807755,-0.0012397454003075271,0.003688718865645498,-0.10701056275989419,-0.1631924962262103,-0.045226005350264095,-11.258502774363073,5.670382811925742,14.706616611375171,1017.8300531705981
335,9.012892029826084,2.9235514996786844,1.8464845214832495,0.0023068181016470215,-0.0028479239299604594,0.0024183244738340097,-0.09921602797058887,-0.14656686323346657,-0.08805484167468619,-11.015902786883034,5.858983925889462,14.802013873768193,1017.8385125259723
336,9.049027965510529,2.8974198540392413,1.8530374989189387,0.0033342557963713703,0.006511786185128559,0.002643092739102079,-0.06998846998749479,-0.14984626599847617,-0.08762234334156586,-10.929576281214707,5.969773610832733,14.899306648732264,1017.8434394928697
337,9.043931439025702,2.9589999865598697,1.7700980748410102,0.0025937808504839497,-0.009559014015815938,0.0009409459311579475,-0.08380731200964697,-0.08683284220799319,-0.12191160150290262,-10.758230597702406,5.98424561372481,14.979986649901956,1017.8397390300839
338,9.049515466885126,3.0099799027325496,1.6875195957563458,2.450005255047764e-05,-0.005670157698793633,0.0007052667071680954,-0.09380309917457544,-0.03532323456603338,-0.14289169743296729,-10.662517826380006,5.9554027509468535,15.149442150616995,1017.8338023392007
339,9.057308927653759,3.0199627069061195,1.6718539865144688,0.0005869520352759415,-0.0036653291918574906,0.0008427695745116806,-0.0928418509437314,-0.027488901086991445,-0.11875630105465475,-10.600936389503012,5.929932513565143,15.323596000129196,1017.8268106048002
340,9.053862974733905,3.0503092299815435,1.667084989368135,0.0013746334526636651,-0.0028535742229100726,-0.00041969392998629246,-0.09919685007065238,-0.003324393745966353,-0.09528719786070941,-10.512333894420006,5.936664036213073,15.365440182423917,1017.8120412714629
341,9.016499296714134,3.0907986098789224,1.6327757941000103,0.0017960785510360495,-0.004222806127682304,0.0021053720901450966,-0.13810189802868744,0.02631941236070388,-0.10083910530187924,-10.52211875618831,5.94416238138298,15.375428107054844,1017.7929554722255
342,9.054761595269042,3.1284268856106228,1.5082255538890261,-0.0033874269638111435,-0.007190383009538524,-0.0013309984181904323,-0.11126060448494428,0.06286691844634094,-0.16104564060808135,-10.380945090792816,5.976929304667541,15.44236890129203,1017.7769234645697
343,9.051415467308171,3.1063350782665347,1.4969159758696202,-0.003031072057335455,-0.0022115158163829828,0.00023147098040984804,-0.11913089380102301,0.032394158652822164,-0.13885598160636684,-10.357516008105183,5.9285933868714125,15.537566695738382,1017.7607706991555
344,9.072310747401065,3.0743311881609126,1.5123463253643858,0.003938895895572906,-0.006336546418400221,-0.005319591131668134,-0.09321347908805878,-0.027775638934508108,-0.1017369674538876,-10.363678812164673,5.929201461659026,15.467457535419095,1017.744508997413
345,9.128110370499261,2.9371964622044735,1.4183266806477204,-0.0019440123641474684,-0.0009789404264421249,0.003107319463962422,-0.03975949316228131,-0.18269081134834758,-0.12744783573642615,-10.310654082077816,6.0194019115752235,15.193491092848424,1017.7326404954119
346,9.127926881271744,2.925673238136722,1.4654346427159506,0.000892387230767205,0.00030885911601872466,0.0007884197339961983,-0.045447344313817646,-0.1788485186907708,-0.08501220522483742,-10.326553761624686,5.989216827068717,15.178827811872265,1017.7275028008921
347,9.135011448064683,2.8693659876807995,1.4147908344745384,0.015080132885340668,-0.015138031473905501,0.0026224022466327162,-0.041592325167423866,-0.25406370690208563,-0.06487911240671129,-10.298595515088337,6.214069437398514,14.432362530741063,1017.7288441802743
348,9.219805878315915,2.6759421184314274,1.3632027769317738,0.0041037713771000205,0.001373534083875614,-0.0011548516864135312,0.03512221810867082,-0.4553705485482571,-0.06071057705041477,-10.683171161519821,6.407917754003371,13.572556889758145,1017.7406853484947
349,9.268665073505323,2.5468244976694234,1.3187082978617088,0.001564723171822979,0.002519863757227114,-0.0011645778904535577,0.07894259544421062,-0.5748600155035767,-0.0913504984941362,-11.086749256118859,6.415520083812604,13.225321974826903,1017.7671562406107
350,9.33643429657098,2.3138713615463327,1.2496051353735407,0.0009752376420522864,-0.002424593172746574,0.002021977355388363,0.12086756609595352,-0.7411940075166367,-0.13034808553447477,-11.311931486039176,6.47124553051642,13.083271706706794,1017.8053351917823
351,9.305249355391727,2.421749838360126,1.1958126816135475,-0.009546647304876529,-0.007157296790112371,-0.0012113784691624397,0.0590667375693531,-0.5511194877963485,-0.21006147629168384,-11.127792911924004,6.431189481875033,13.356721335563542,1017.8421658064918
352,9.257501086957152,2.76730993931108,0.9203624546187055,-0.030782754222413472,-0.008099381628575427,-0.00638465020885834,0.00046773995536664864,-0.17119225603559318,-0.41327174591633165,-10.457607187942468,6.073921530025779,13.752352780813686,1017.8780123462101
353,9.134277798699783,2.986134585482302,1.188563055447944,-0.018965936037473423,0.013506056100446834,-0.0018352389028673845,-0.11605661886240037,0.07632194936661046,-0.2325468124652335,-10.326061259562556,5.435241216621888,14.21629419881745,1017.9167475204937
354,8.99150814943913,3.0824887955402818,1.6854326403020543,0.005284539404662537,0.015048755321218342,0.0038952192307064645,-0.24354500660915,0.2107522384273654,0.10527837660679468,-10.555258273074147,5.346453970123955,14.451392600160588,1017.9496556483596
355,8.925385764854104,3.159913179459333,1.8568297816143677,0.010186809949538952,0.011628919353806924,0.004552156353236739,-0.2983951291794151,0.31528829627392974,0.17621001928997293,-10.662392270721476,5.460885141193911,14.560392452654584,1017.9736734410615
356,8.954158838910423,3.2422737537312525,1.7966314925494158,0.007661683416691209,0.0010420011150553271,0.0010122119636846536,-0.2746483358669376,0.4026970964731997,0.12199049206714527,-10.624627618518382,5.531530897379888,14.600359576533817,1017.9872246276497
357,8.98817712604775,3.1127477658201506,1.714736293927953,0.005277335719309868,0.001890991589796898,0.0025672047945062247,-0.2500239023575733,0.2791141684255868,0.06745070268641036,-10.471728158508215,5.64086099598279,14.746947311971411,1017.9930957630388
358,9.046657763516375,3.103131895698675,1.6326409048684472,0.0063137147513241685,-0.0076004071499924065,0.0001347662468293748,-0.20649721662047618,0.25962397743060656,0.06026463030164265,-10.279520041483577,5.670337382869698,14.912886428303622,1017.9897958689273
359,9.093389041177677,2.9826069191420936,1.4770023906930612,0.008655106668188469,-0.010044744102366741,0.0029579450003698903,-0.16582100837069888,0.10337115140396438,0.004326321338819231,-10.352256825365997,5.861640897207546,14.450948924643262,1017.9873874617085
360,9.186826600297245,2.6156371071635967,1.4929686950579417,0.008739103219133789,0.013475646487640842,0.003755501683416056,-0.08406811321936812,-0.23941241260679322,0.06252932208193349,-10.830873319702832,6.122646213390116,13.789540709534341,1017.987175534505
361,9.114591778127094,2.4918853595575237,1.9934968010524248,0.02783852315206247,0.024644057880692016,0.010429678277159335,-0.12509241436552576,-0.3378550177622526,0.3617274627264325,-11.210239842543764,6.420010077696025,13.742426676015214,1017.987020860752
362,9.022919345768106,2.727224171752762,2.0731746806124254,0.031396992919390077,-0.0027785329448696966,0.004636208613786595,-0.20329171032391669,-0.0939027390135756,0.3747031437389189,-11.081142230973903,6.999011583808036,13.521211648534017,1017.9842285637648
363,9.039920689577437,3.0938964187331504,1.4956885713879144,1.9497386673950068e-05,-0.022811897607897244,-0.0034675358883424845,-0.20578699528444624,0.2200849442144095,-0.02342927659297639,-10.431355554708368,7.077954813862264,13.41106587386178,1017.97918135311
364,8.967159725492676,3.3901700479508436,1.1808734839244617,-0.013565254644090564,-0.011884234500722448,-0.0019588194370240785,-0.28606712279401764,0.47016680110908443,-0.19425166604467275,-10.069374601668738,6.823882769698276,13.930429089790968,1017.9645117754105
365,8.948516088429443,3.529264892290336,1.1850427782206308,-0.015303410140986125,0.003222574395345781,-0.0022940226550033247,-0.2987180634575451,0.5841959390097285,-0.18987089767396775,-10.078014959438109,6.490327162827516,14.360355134031142,1017.9358323227887
366,8.96066281901738,3.412733269257649,1.3089297442290218,-0.009853624676288877,0.008206467030623403,0.003867602494512911,-0.268576315647135,0.44703076074818243,-0.137096378928373,-10.254579843650253,6.287965204689275,14.634661584551289,1017.8977315647127
367,8.939453299420123,3.4123277746827885,1.4213654786360126,-0.007825707388392096,0.004955501310022107,0.0016083599781796126,-0.2812967066036355,0.4470679784220723,-0.08886929442872611,-10.42864169932787,6.152877019201071,14.95963673354753,1017.8577012856142
368,8.918688400435906,3.485500715405341,1.5232954334498134,-0.005122920210792595,0.003415506482447579,0.0008851182953903614,-0.2883196925953185,0.5021663734683512,-0.048690676633647775,-10.565798668847481,6.057000594781118,15.268613456677613,1017.8232604788614
369,8.927564590166172,3.4549393999668285,1.584634591294048,-0.0030935109567138074,0.0014765624829892207,0.0006723749933221434,-0.2646031165988793,0.4386252655102573,-0.02679143576493341,-10.63640632330531,5.954525098324327,15.46536510216261,1017.792899113779
370,8.948947445714785,3.3824941863257214,1.54769432592616,-0.004601674159334876,0.0007710968520602337,0.0013742839247937052,-0.23811088880737488,0.347290706261501,-0.06260290611950176,-10.646494702194286,5.912481952956746,15.613168398525255,1017.7644332633084
371,8.98810515900354,3.250496381459718,1.5803596666109647,-0.002323434959283286,-0.0017622125776290422,0.0017444173256927528,-0.1948365478891249,0.21146521409842048,-0.045457657993313055,-10.615061321772226,5.868226074932951,15.656662121179963,1017.7427917885096
372,9.047300795426478,3.1441264126325428,1.5831467345942012,-0.0015415047286954087,-0.0006854718519661376,0.0003647402596158847,-0.13452365101252164,0.09597784271007884,-0.03939117438817506,-10.556869573152612,5.8580964524464445,15.76040406328553,1017.7269968925618
373,9.080329413235301,3.0519572457642496,1.6293607877684835,-0.0010832846418387903,0.0033177286918011917,0.0006164427316676557,-0.10069549420842008,0.01364412299350136,-0.019237912149240845,-10.54837745917358,5.84875263488046,15.770341058784938,1017.7221678792997
374,9.106776186047707,2.966303810453486,1.6141509972047077,-0.0039489568260553335,0.006586575695187378,0.0005130949044587717,-0.07720780970318265,-0.060972104945522104,-0.056638571129528775,-10.501259845430965,5.898085014977696,15.669535826928433,1017.7251358480513
375,9.079124083760902,2.8762073192431394,1.6779333653199189,-0.002204841278023402,0.003379087841695288,0.0022827209818276086,-0.09864951615534923,-0.14456315722913832,-0.04173916179701881,-10.590263549543671,5.849305276978781,15.720289659133933,1017.7350930366022
376,9.096508689661608,2.8512165507879415,1.763610287548702,0.001182474471927372,0.003437777957145774,0.0004093312971983137,-0.07164858561028331,-0.16141630480540917,0.0034021382691708305,-10.64978278522591,5.9061780346387875,15.666102634331688,1017.7498627369731
377,9.10414606921427,2.8775167631117635,1.8241580229013146,0.00274544952955413,0.006957427820978631,-0.0014438927539852083,-0.05055972394398188,-0.1380267208269944,0.0060648386645177944,-10.748773816188416,5.901333501639005,15.567604226465306,1017.764599829389
378,9.049544811179905,2.938920772867259,1.7616330430488705,-0.0003829323832691086,0.0006332177803657696,0.0018729896353349735,-0.10831550305213095,-0.07960933703633213,-0.04119161924692606,-10.63399790321367,5.924311620334063,15.541765445486407,1017.7753556047438
379,9.032266455211863,2.9682297945526415,1.8244949877831904,0.0023538793997093473,-0.0037992816945931207,0.0003715068154256215,-0.11710914620844656,-0.0559782772605561,0.0012703985472648296,-10.73299729016409,5.967770682554644,15.311714039806107,1017.7766924444611
380,9.042966393945262,2.9657666991350227,1.7849374851594155,0.0009227275686387022,-0.003195464521379865,0.0004740670850622479,-0.11239223546896096,-0.061685888781378026,-0.009886665544004226,-10.750625500704167,6.038918788921336,15.471489352991714,1017.7714229274746
381,9.105578973078396,2.848878320141204,1.6846322626252823,-0.0016494732424589419,-0.007447219937214297,0.00035199531008013927,-0.057799608860269955,-0.16773738139488764,-0.06668852854207954,-10.672156561216292,6.079149893958229,15.55507953035056,1017.7617645923372
382,9.12164656747074,2.8718924569641557,1.6041993705941406,-0.003783736562238145,-0.00502502212614072,-0.0004345124871223244,-0.05526964534193285,-0.14161416469665417,-0.09888297746400546,-10.59527331654485,6.052380031811794,15.66198766643379,1017.7459143673631
383,9.099402740132435,2.870825508714338,1.6174868418315314,-0.0037002023704295886,9.645050700579985e-06,0.00047335769209477975,-0.08370502139483182,-0.13657162451445493,-0.07142250294415789,-10.600221046483663,5.978999034135607,15.69981077810286,1017.7329859425985
384,9.106851891753147,2.8580423619575908,1.6677805770808645,-0.001412671563382156,-0.001031285167113674,0.000179145918031044,-0.07741915575587283,-0.14101004621222238,-0.027044455726522525,-10.62017727640152,5.921553926574007,15.745343033375557,1017.7235502120938
385,9.130640820735755,2.8551550763860343,1.594243327818692,-0.003501784338893236,-0.0024633756767447057,-0.0014604052528088313,-0.05800064408373408,-0.14000573969756336,-0.08124839116089988,-10.53826279600308,5.832552985495859,15.779973900911344,1017.7166636027985
386,9.124134108098414,2.831064176164439,1.6466045668213534,-0.001169106412834439,0.0011202186407983212,0.0008061170300251207,-0.06557800100564143,-0.15517386015671375,-0.038513311575930076,-10.58170432962583,5.755967037605793,15.907386548696977,1017.712255841352
387,9.14318209355171,2.817747361486811,1.6326500158607702,-0.0011935280317386242,-0.002801128107977859,0.00020629641175462802,-0.05151304345613829,-0.16251769577298936,-0.048457600626438856,-10.56992904208292,5.723619959549107,15.959459668239777,1017.7128931827156
388,9.139158261187424,2.80791955173512,1.583220708975542,-0.002450580727676035,-0.0050557490600533885,0.00028724461995413683,-0.059118137932854815,-0.16830101806647982,-0.0688233652358083,-10.461330829280119,5.679840554970342,16.10859489461192,1017.7195211458559
389,9.139044966704184,2.801309701409657,1.603308806184145,0.00023002474181823152,0.0006245577318381625,-8.964894969691313e-05,-0.06620989810125312,-0.16558575773125,-0.028687794899930265,-10.478133488634501,5.658245137088213,16.17179774591763,1017.7303562616415
390,9.142190591406283,2.8221978732331623,1.5766794330011225,-0.00018513855780779898,-0.0007993694885761961,0.0003095031637328501,-0.07148909145590067,-0.1401397381619022,-0.02513600261105814,-10.483831758690414,5.676279597232075,16.17573539680907,1017.7407788176115
391,9.124817885725856,2.8479578219814767,1.6049006570974782,0.0011060533966482135,-0.000761145744463735,0.0006668258321487729,-0.09062519041091752,-0.11114394314313848,0.006974954821152388,-10.511586590492403,5.681093708970961,16.133685163848764,1017.7519719790552
392,9.137443178325125,2.849220749289283,1.5735253273598486,0.00036567435956304207,-0.0023358673849795068,0.0001114390507048203,-0.08118603239210265,-0.10663870136264357,-0.008387201180143862,-10.538225607027885,5.6686164684682465,16.181157366479844,1017.7636659665006
393,9.127378477074604,2.8518596224940107,1.5380146039662805,-4.470624162719171e-05,-0.0025730776062412994,0.0007253337151507487,-0.0973700901982967,-0.09462902108931537,-0.021438239109555765,-10.564002334790601,5.6748892433455564,16.303031628664062,1017.7722007505962
394,9.1342828312542,2.863275082716151,1.5233491644287955,-0.0005191887064050196,-0.002146444394459076,0.0003531803987011154,-0.09405471267108331,-0.07776881270249604,-0.026653729237874537,-10.564170617555936,5.633291653709819,16.36768348062837,1017.7782647443058
395,9.128137314377726,2.8649585010299523,1.531526018340232,-0.0007071079839262055,0.0010685038437889703,-0.0001389974482479621,-0.10146031076145991,-0.07196390621256442,-0.015347867242013594,-10.578290148107591,5.563744398574442,16.386774858404877,1017.7788361937713
396,9.127248626604233,2.8579090582938673,1.5100581641933488,0.00014793531953220514,-0.003013417581455927,0.0001962790896541803,-0.10581511628625848,-0.07624124921812016,-0.02106452457786362,-10.603375212904636,5.539067810357586,16.253696185592553,1017.7754813415838
397,9.156736226605288,2.8287123657765623,1.4862851321681931,-0.0011282558670769479,0.00027282069552267505,-0.00044562736308694395,-0.07915528810574046,-0.09958096128629912,-0.035887741444084714,-10.545537322247036,5.5025341733739435,16.19154067329432,1017.7679830636423
398,9.145322471246596,2.8212880211792415,1.4885625816936259,-0.0013949485476723966,0.0012653421480550726,0.0003552210343163915,-0.09389967658494963,-0.09775449754978252,-0.035375227527889096,-10.485608392078504,5.488445548825336,16.19269238188895,1017.7542456030752
399,9.156888049805156,2.8093972599255834,1.5102620436100525,-0.0009291449588082199,-0.0007102729215087804,-0.00019141196278366426,-0.08557564730263062,-0.09542565323409487,-0.023719573412782444,-10.45623162211617,5.501083608376424,16.204672645054846,1017.7442194028157
400,9.13632440485637,2.8017880777634994,1.5144292770199557,-0.00016547120806996332,0.0012022744098713232,0.0005621129779172282,-0.11007046890730228,-0.09822118513390084,-0.015681297476832418,-10.251775212783073,5.594485327119824,16.132040228839156,1017.7377880902908
401,9.14561991286001,2.8163915117056817,1.5361898379866985,0.0001861170420772349,0.0028765433898509237,-0.0005900970623125104,-0.10047139967584823,-0.07849881837204525,-0.006219042361819695,-10.077682101254547,5.515921554548584,15.871573538079897,1017.733980484248
402,9.145647053763437,2.8234947547071623,1.601868886608907,0.0020612706953109855,0.0035587723599676724,-0.0004752994793882877,-0.09303504382633641,-0.0723337873928006,0.023584374999409033,-9.976530603760732,5.473342701185119,15.59519076695011,1017.7327473604745
403,9.134151753023167,2.8171786674645425,1.6045688097796507,0.002304953741608693,-0.0005300745714332555,0.0003810585199002634,-0.10554555442317648,-0.06932675477369643,0.022826763221249415,-9.92106914598249,5.466781455676819,15.403704516762339,1017.7351246377546
404,9.136229709683125,2.816727089306205,1.5143781605206246,-0.0009475284793233709,-0.004148746015929311,-0.00017136899922686274,-0.10709912108161222,-0.07228215945138819,-0.04298283817632597,-9.82151935035684,5.439483852372267,15.338529758740597,1017.7426720897084
405,9.146488469487497,2.8473910250051024,1.4987852031622217,-0.0022491129196955915,-0.0008925971898631896,-0.000851657770033805,-0.1001765733714855,-0.04202213380021548,-0.0458143975068144,-9.775953689052924,5.415443022917506,15.281457553178408,1017.7521172669526
406,9.134547799800488,2.8537279883712747,1.5281507748991376,-0.0017653428828748542,0.0027548719604708295,-0.0006385537690637118,-0.1103527427959166,-0.029957744079207357,-0.026087470619520832,-9.811913613873323,5.41480471124213,15.3342808313379,1017.7618963093911
407,9.118576636598455,2.856977869800496,1.6252635311496024,0.0021975629512284624,0.0032235191416705913,0.00012789600504779428,-0.12212519387344581,-0.02584739199119855,0.03510303418859427,-9.809645394785154,5.424958790436175,15.338892789239614,1017.7711769021536
408,9.12905020555074,2.854674179340358,1.610267739359716,0.0020215047370017495,-0.0013539893144652662,-0.00047015217750261346,-0.11085506578845561,-0.02756951453057442,0.015225553968940816,-9.796131068659918,5.462756491130265,15.29470118677737,1017.7830827128446
409,9.157108274491629,2.7566582865058993,1.5286948196859897,-0.0006724611246365954,-0.004742210815668594,0.0014843312000243154,-0.09285718882778117,-0.1180577745987248,-0.03709745760210405,-9.770194053615791,5.468719343007891,15.334522476572108,1017.7970071818937
410,9.165532710810202,2.7981094739216887,1.5281977509542004,-0.0005536885611808053,0.0022084107473486015,-0.001196733515144145,-0.08469844426597867,-0.07410810122258532,-0.028754887821367245,-9.729873751001389,5.414687568450179,15.253314494149189,1017.8118487045656
411,9.09051543851153,2.8655714090100304,1.5314882582036162,5.072337922305142e-05,0.000127121415729849,0.0019073002109148158,-0.15611480931501628,-0.008739382726165493,-0.02884061123153192,-9.719014382569304,5.431236132868453,15.152052852137581,1017.8284725767203
412,9.12661543762236,2.8908306642710944,1.5517786392234036,-0.0009150014112302104,0.0009698135252838039,-0.001115195955797447,-0.11685223003558591,0.013034209223969504,-0.026385626662382023,-9.72979791054636,5.474590876909768,15.057626483542279,1017.8493033559445
413,9.173350012304475,2.775580930172609,1.561585022386084,-0.002652107897140488,0.0036441353714563836,8.540383997699395e-05,-0.06935176717882414,-0.09639416627173313,-0.03920612366282519,-9.779926217499638,5.498050715962893,14.95526379482056,1017.8716173524158
414,9.19518022042986,2.717303130247541,1.4528357133130891,0.015330102829412984,-0.013209036036410927,-0.0017255983388564794,-0.047731380603122035,-0.1960212127849889,-0.04182826905616538,-9.789485217026202,5.7709790198238125,13.730353490245468,1017.8967247650712
415,9.244724152588354,2.5937769158702184,1.298547804380433,0.009869195684127478,-0.008715015402627091,-0.0003608099922685021,-0.01886088753813428,-0.32097600256643305,-0.0524811962534395,-10.131213757379534,6.1112406019579035,12.298727621481671,1017.9256228982101
416,9.315350740090363,2.4731785334054077,1.2224414699272046,0.0060376858914324115,-0.001559423042688031,-0.0007010578726434318,0.03267408606204491,-0.4241141405566588,-0.04057821828468995,-10.439849236736725,6.32596264761081,11.370791713132592,1017.9558034269186
417,9.296241552921083,2.4776995548115774,1.2931473469258676,-0.0011147425575671402,0.014566651528695105,0.00018953220972227239,0.01186212702698794,-0.421191556281777,0.019364283584772275,-10.302256803185093,6.515634563075691,11.073534113534576,1017.9822722716763
418,9.210909647209174,2.532109616798667,1.4888248206042776,0.01249886938436332,0.011146720782419302,0.0036104020515618776,-0.06960083615175112,-0.33387049104953315,0.13427448245346973,-10.235735155876062,6.590654994539997,11.292790875432148,1018.0060321669591
419,9.094946656260364,2.6531488235151803,1.9550451338146773,0.022632190048073687,0.03882988095728464,0.006983223012314359,-0.14796837683736835,-0.16461701140073481,0.3545481873605937,-10.430878089707042,6.856570792614278,11.127688342752224,1018.0303604992017
420,8.998295611138241,2.6166935808600975,2.4190670060543553,0.04098994011665551,0.02586687939005347,0.009601634348650374,-0.18610830842154696,-0.18561133573886934,0.5351935507448716,-10.72158347710335,7.2541436296563955,10.511522116774334,1018.0481163813646
421,8.913305693798334,2.4892077535781456,2.739203815039359,0.04022878701410252,0.0457172396028105,0.017206147486087897,-0.2317368380856188,-0.2604504307410711,0.6176363010419815,-10.848637373557919,7.896611269484458,10.078083710145435,1018.0620439116834
422,8.8316956032393,2.473139293860179,3.077255105896678,0.05674667442059549,0.03212464698631444,0.017969618159580734,-0.27473418219572426,-0.2407406884467097,0.7499752141444004,-10.991554861871077,8.55709874933346,9.594101422579055,1018.072497630161
423,8.817645858489044,2.471209344249483,3.0938729310713846,0.07799331427187908,0.009322739467526618,0.021530337544881206,-0.3012054633377929,-0.24297141309448345,0.7880860071692991,-11.124772899685984,9.545762490547762,8.197960974966923,1018.083177545443
424,8.935717874214802,2.386189343445441,2.8524180910458146,0.05888985718978049,0.011020495825424127,0.013968252337687193,-0.20442053484322437,-0.34743690970584545,0.6458766219722095,-11.418752223229355,10.32281650293582,6.848403389202246,1018.0977120724431
425,9.009855922370505,2.3911209659441814,2.561190706229386,0.042599793309115425,-0.0012867309548794757,0.010792143482346393,-0.14606629123380294,-0.3446751498178902,0.4015199643864496,-11.677697687341414,10.741263700088705,6.368839190010094,1018.1193469727874
426,9.0722468072193,2.480496127593647,2.249965052691288,0.025005843206354676,-0.006590653522959627,0.004820961313987523,-0.10365300497936994,-0.26360439536114333,0.17265883571708796,-11.8753981758538,10.902359809849266,6.079124476539391,1018.1470298871695
427,9.14418605934052,2.465757243716003,1.4924319558299395,-0.012382076542068965,-0.039501583571089155,0.004789858140312446,-0.08049180138053393,-0.2805117736401707,-0.293370765158899,-11.522623717364741,10.975332043276055,6.303130204420607,1018.1788794439376
428,9.263014668691358,2.425826302835556,1.098237169559797,-0.04367001393810312,-0.01697540094446794,-0.002354856777832201,0.004150554158099784,-0.29215418649724123,-0.5641593564471301,-11.393414023293582,10.668668633701916,6.6472629560063385,1018.2126364233034
429,9.348152898617355,2.3420503281767573,1.0221244141284513,-0.04885575670001391,-0.01651711590618789,-0.00781380009311412,0.08067834133067422,-0.37980860070068306,-0.6072004253203364,-11.450814761644795,10.10108423925938,7.032111035110324,1018.2471260718901
430,9.433050574934514,2.2076114626122587,0.3511074915603297,-0.0949156579738219,-0.06678180340457046,-0.00792477343515011,0.1339133006809598,-0.5307761927607334,-0.9882047439307481,-11.16360676829807,9.10642800119087,7.687528061290329,1018.2802126240489
431,9.34851596160926,2.472134881899914,-0.6545790267660455,-0.2093939422110508,-0.10846971940139807,-0.019770422540996986,0.05391489020266589,-0.3482944983274755,-1.6039920667164216,-9.821371917153405,6.070881473650292,9.98393333379114,1018.3107709052078
432,9.234013513330416,2.852852991682377,-1.40712538444595,-0.298276574619796,-0.11809970189699448,-0.017192441050139874,-0.03221830876899166,-0.15155348340939936,-2.0391811984471135,-8.18297988548361,1.290151806012382,11.251488593436592,1018.335876817742
433,9.221393004423053,2.978941625515562,-1.201048806339984,-0.29634954974029204,-0.07579206499359989,-0.005916841525668581,-0.030203728779930848,-0.09144388366810027,-1.8726724843923999,-7.226099783433117,-3.655377168430533,11.034362352779231,1018.3542002120503
434,9.20224977000158,3.0360289944614216,-0.6059682704206449,-0.24459184248707155,-0.06253667447313517,-0.010975674184872126,-0.012533709836334717,-0.10716279910474363,-1.478397593025817,-6.797280544378718,-7.752411058100263,9.727672584522637,1018.3675734275637
435,9.171357904650087,2.9557462736882605,0.10472273070697369,-0.18334884357392575,-0.03359331952560665,-0.003788877632389327,-0.018875295049213755,-0.19983005789185312,-0.9872639486124082,-6.42976999578621,-10.621354487038918,9.135983031307164,1018.3757879519891
436,8.987873412431636,2.8763182245523256,1.121829347455943,-0.06307178645937153,0.005218850953224857,0.0140872401279293,-0.15877170146785136,-0.28853916947829106,-0.22676987717465547,-6.677774740316101,-12.435836767317415,9.663499933590016,1018.377124968052
437,8.885510990616321,2.705392046592702,2.0255468536379135,0.04978009536496383,0.031043091808358337,0.03995525781643813,-0.25992831468137145,-0.40576384710461255,0.4947529508322105,-7.724800454816121,-12.615791564287381,10.98049668800259,1018.3707633382058
438,8.672636562792437,2.7418912614739446,2.875323460470285,0.15754413787071528,0.076160942326332,0.06429267006086664,-0.47323486725448444,-0.28619134557920445,1.1758173551388946,-9.28116982002391,-11.050322797528773,12.894710987519586,1018.3583909028024
439,8.494743696312174,2.9955595847119874,3.357061490376888,0.2021269956946737,0.07603397613053706,0.07321476864029168,-0.6518268082468868,0.08579108298116561,1.4636787482986553,-10.62551898272327,-7.904786516002555,14.077352415295604,1018.3398387616793
440,8.412056949242722,3.5250865932571527,3.1621750111066063,0.1637362764807359,0.04603356123496031,0.05232010386767631,-0.7478025315953063,0.6500195487510538,1.2566434367430157,-11.21576756584358,-4.92873894845506,14.525481247503764,1018.3131074092108
441,8.464090268911573,3.578063460583331,2.914266291351063,0.12059266490521169,0.026641920981312225,0.04566767967807627,-0.7142240072925974,0.7344571645358534,1.0219552143380555,-11.525439964034728,-2.658124124903331,14.863952572450943,1018.2835392415831
442,8.56774018643795,3.5913748315384075,2.582625642757395,0.08874322428726122,0.015327754442193113,0.02858188779349513,-0.636617552001713,0.780641025127329,0.789691945848777,-11.499676051779273,-0.9901657335676535,15.41413232538597,1018.2527046269197
443,8.57744700408674,3.797706541213034,2.362349000505573,0.06301712136279067,0.010399884539873493,0.020521504981054463,-0.6426976296861437,0.9707650435144008,0.6498010472333164,-11.484247151756515,0.1703869638057547,15.919656610701194,1018.2153599539178
444,8.616254507531547,3.8262012005282586,2.223316796749384,0.046454421183951516,0.008147045809703761,0.017995827108244277,-0.6041014386776068,0.9545952847890884,0.5538877065315728,-11.454706643017348,0.9686661281437821,16.31256406951297,1018.1732436935612
445,8.689906820602012,3.6931219521333345,2.1599184843804853,0.03301289372283077,0.013262237123600114,0.014577596611825044,-0.5308046466780811,0.7963049893472576,0.4820582713972245,-11.437745142571444,1.7029631243892691,16.551469745318105,1018.1334775924287
446,8.735617675400974,3.5905114895794754,2.1605121182434437,0.02779075269342133,0.007471552562501112,0.011898498191127496,-0.4758529734126286,0.6858051255504851,0.433547708914169,-11.434831343411648,2.3435109177568223,16.582997593853136,1018.0924998680075
447,8.780717539572208,3.5256820621751555,1.9640866186271235,0.01590304148390636,0.003909531710555195,0.009040008954540922,-0.43427647436578964,0.5853112495042939,0.27704486575819565,-11.345850426493831,2.731674496949008,16.647660031783495,1018.0505967841113
448,8.853049459248497,3.575268574382194,1.9011330953692376,0.016305898277286266,-0.0047671161494945834,0.0008891849893083153,-0.3392384410312405,0.5840743114186653,0.2517199537981597,-11.349403704268537,2.8862427526425756,16.832873098791012,1018.016592550203
449,8.968398499415237,3.442527692780408,1.7951174564088637,0.011224908121585192,-0.0032176458450144992,0.0010880012283362801,-0.22415379356041532,0.41197430657048817,0.2191549620791772,-11.242990529712621,3.1140756277774293,16.940151946983537,1017.9876113939337
450,8.907527424772509,3.393365828997918,1.626593935305621,0.007964859318126584,-0.010671517829431449,0.0009727006979520225,-0.290310664528044,0.3078086247998922,0.1599297449777613,-11.072491490990162,3.2027323972865056,17.257478181352873,1017.9616675110935
451,8.947444091290246,3.4022324585584838,1.5275098865476326,0.004050144660124838,-0.007512414443881945,0.003553342180882809,-0.2475940071328547,0.2920863493734037,0.1214279241412344,-10.937920914003243,3.2358373569402263,17.56415030482688,1017.9379403633984
452,9.00039013077417,3.2827432638744143,1.436874989050365,0.0032158306202561397,-4.1076735181821804e-05,0.0034310375170202457,-0.2016938110732162,0.1592235386639557,0.10560113557553305,-10.837254561227715,3.347516352224283,17.95871240151258,1017.917098794103
453,9.017282496129935,3.182807574565199,1.5075047384293043,0.0058399516374163535,0.001840082789715313,0.004360362040178758,-0.18116489785304132,0.04052602368178032,0.16027598983688102,-10.824072594824667,3.429805127008195,17.957484830944576,1017.9005685314354
454,9.000738484940635,3.091593343844068,1.4203680455837575,0.0053763162547476534,-0.010695140666069327,0.006488278464826924,-0.20358452534598287,-0.03394787140463418,0.11445494482682221,-10.750965545144556,3.6143741552444144,18.084765252292097,1017.8881125655603
455,9.15560318879657,3.0184037109282187,1.290776489969368,-0.0004393338598095162,0.0008129257831412558,-0.0010068067758517959,-0.05699423055688921,-0.11464048446208648,0.045674546546107406,-10.605907876418804,3.6543673271777064,18.18832828130884,1017.8790216562412
456,9.109218948365045,3.0054215934968482,1.196829066226605,-0.001437588247209806,-0.007526041599086642,0.002693523597367376,-0.10499381084903625,-0.13578800703639385,-0.010750768367436006,-10.517594613395465,3.611653223136939,18.262013819463462,1017.8748599926658
457,9.195173928984223,2.965867499873365,1.2996027085172044,0.0031608296823027265,-0.00037779432588352316,-0.0023931907885877514,-0.012484781262690009,-0.18233125347928966,0.06545015707521079,-10.557751079405572,3.536618424835823,18.300649009837123,1017.8728738061775
458,9.198316752864141,2.8742129952444926,1.2051001123432166,0.0030457568013995333,-0.0029412282110851677,-0.0048897495543600705,-0.01196293547884569,-0.28463479246764106,-0.004237706681850903,-10.455637856997557,3.6689816778599473,18.14795480698173,1017.8714242003069
459,9.19446807345063,2.7763891718123315,1.146164325402468,-0.0024459930720061598,-0.0021087396701002527,0.0027418136052083167,-0.0077914015943194,-0.38691603265064706,-0.0551559384893072,-10.387955914240967,3.7051100092286218,18.061271525383095,1017.8704691439838
460,9.196687365815826,2.7866522166591494,1.230860262370357,-0.0009739773989017454,0.0054001683036388175,0.0002213803474345735,0.0007286293581951842,-0.37834850354235694,-0.013407651753178006,-10.44109139521656,3.6437106509632438,17.968788962561266,1017.8707822161352
461,9.185524465953124,2.7395395869132004,1.2493578903996794,0.0052812402968484985,-0.002272517221392217,0.0038812721178266563,-0.00943563284920005,-0.44345791769543236,0.02751048443483213,-10.32515603642124,3.81898126564679,17.650580095497943,1017.8780596257803
462,9.235159206966355,2.6661673991009427,1.1691022655380618,0.0021963284453029902,0.00040199267109335135,-0.0005738715789642725,0.03274676344301439,-0.5077957369224378,-0.029536109312092183,-10.230739730586153,3.9539736474304656,17.54227807536467,1017.893573717501
463,9.320549343653633,2.462498254042162,1.054097526804762,0.0008500305108663086,-0.005088015608886883,0.00104643832946219,0.10438442646106418,-0.6921812604219691,-0.086714861848246,-10.864325305593901,4.061487450448187,16.940304747050693,1017.9167685957025
464,9.314411509514628,2.463993339576311,1.1315305792065393,-0.0031830069091732657,0.005791806950031014,0.002410980742909301,0.08768731696560168,-0.6514474883429383,-0.06451228906613728,-10.83307932895904,4.017239218443645,17.06848870061726,1017.9433020972749
465,9.252481648887537,2.6301116039908266,1.311417529872211,0.004575208444244555,0.00929269851021473,-0.0010825728682870009,0.04303942758229853,-0.47436715849726974,0.01623880212355601,-10.85306338001161,3.9455694910834023,17.061298464637566,1017.9662126685432
466,9.1568004817455,2.882649620381951,1.3407229374990874,0.004280083389732875,0.00300360116376059,-0.003269148855265043,-0.0538124237432751,-0.20385383363438886,0.023915089734268074,-10.826898338262913,4.047184619673228,16.972523735672187,1017.9829338066659
467,9.070678703581745,3.1641613292867863,1.275502425157703,0.0006880646948680428,-0.0025588672853539794,-0.0027408508467538276,-0.1412287753074461,0.05951632450939087,-0.0015827395009230805,-10.629244854331429,3.9229430454558245,17.07460723141788,1017.9951376254552
468,9.006405154282444,3.3709116932435563,1.2519354989832605,-0.004376479502798634,8.76564482125918e-05,-0.0014580070647020342,-0.19656548666500742,0.23851811288698843,-0.022848302191512983,-10.503864807522337,3.8172178127663536,17.094014704608423,1017.995408423165
469,8.966749559532474,3.4513095975994106,1.288507543424292,-0.00506852048392734,0.0007572478965686656,0.00011036644012926114,-0.22466439069315855,0.3064584638030006,-0.026346804855879348,-10.47934189843394,3.693318128033955,17.1133274146208,1017.9837132464324
470,8.995218041483566,3.4070569292972475,1.2793814609481762,0.0036412647909195147,-0.013874431083415151,0.002932352882765072,-0.18684365506652087,0.2308176447227501,-0.02121629213252801,-10.571487454367663,3.6724040409533956,16.926021434373787,1017.9628314554606
