Time (s),Accelerometer_X (m/s^2)_kalman,Accelerometer_Y (m/s^2)_kalman,Accelerometer_Z (m/s^2)_kalman,Gyroscope_X (rad/s)_kalman,Gyroscope_Y (rad/s)_kalman,Gyroscope_Z (rad/s)_kalman,Linear Accelerometer_X (m/s^2)_kalman,Linear Accelerometer_Y (m/s^2)_kalman,Linear Accelerometer_Z (m/s^2)_kalman,Magnetometer_X (µT)_kalman,Magnetometer_Y (µT)_kalman,Magnetometer_Z (µT)_kalman,Barometer_X (hPa)_kalman
11,3.841470444490392,-5.835673478080196,-5.310048873060785,-0.4685990390312,0.8508262069670001,-0.5775074900154,-0.29067604778496,0.5996174523538,-0.023294131885,-14.96253723116,41.5296022798,11.88178161652,1015.942459
12,9.416517655487361,-3.8289633717671214,-2.520155332546799,0.033858564670147084,-0.025442101912385717,-0.29156532393080814,0.9196380539090272,-0.08301284304963619,-0.06131643873353987,-35.2070089294912,30.420375966055587,2.144029206267664,1015.9314301780415
13,9.234032086898887,-3.5009396552266647,-2.440713862011417,-0.009576150307716531,0.013217742062414752,-0.06491374879418074,0.5574037408357391,-0.15275668567984743,-0.11822031267411393,-36.513931355351325,28.553684229619456,1.2894274696057797,1015.9246081326014
14,9.005306582804282,-3.4092290670057617,-2.3436327752375523,0.02545458044247429,0.021593463665473208,0.033540970125362224,0.2729360369361844,-0.25430802612314696,-0.12693041874381378,-36.98716376006812,27.67889245923744,0.6673273803672125,1015.9146060328848
15,8.978554369736267,-3.4375850073974994,-2.290307523797656,-0.07114190269294587,0.03327130583532311,0.05012642833085111,0.18658041380044754,-0.3443765121698374,-0.290703413466937,-36.83311147355394,27.843587280736234,0.08838444814769764,1015.9051119481238
16,8.95719319574529,-3.486746925950189,-2.1972603229897136,-0.103261843137046,0.01743128584480638,0.005825275677781884,0.16507142320177404,-0.4180525253600257,-0.19001144409025367,-36.568677887843336,28.188421597336788,0.8513887151021297,1015.896043759078
17,8.90290634430631,-3.557992069596674,-2.1056317994229166,-0.05972282768807895,-0.011919107682752852,-0.04921584493805618,0.12372030284692273,-0.5586756862127344,0.05450420279046836,-36.67750718388202,27.929700175361376,1.7426322478056122,1015.8869186790263
18,8.747274752979186,-3.5853599716813056,-2.0445991066600757,-0.05529563480036656,0.014415138611181193,-0.043169489330096227,-0.08457407645418952,-0.6698501149263619,0.0846681000489678,-36.99880189673728,27.28938851466901,1.2110909100403395,1015.8728779197169
19,8.620298393797444,-3.621454378300753,-1.9511940174367532,-0.04577979993200742,0.016020894409256203,0.008881838861753477,-0.20461190470111315,-0.7109482050942627,0.0866032513716742,-36.89952992118873,27.232747327853,0.5664657165954344,1015.8565333781958
20,8.691766011181201,-3.7727648620939207,-1.806234360038633,-0.012605678603188217,0.028189433129557656,0.08346566714653075,-0.1347026055901514,-0.7384341463853544,0.1862354234251824,-36.696198652575866,27.48315099866282,-0.13897406971348203,1015.8377330557126
21,8.79614832387695,-3.994276821966607,-1.6902976566075798,0.020843199835357033,0.01811476912176898,0.11440338427783864,0.02403883260950429,-0.7926364066917644,0.18334556572091698,-36.316987187897055,27.483118736905936,-1.2455072022639462,1015.8187020651442
22,8.657830321690003,-3.9212327147275974,-1.653040691623544,-0.0734302736212667,0.04089807343933808,0.012669478467791775,-0.16811352264344348,-0.7311981799973798,-0.06464743785701857,-36.239197650269375,27.401229394103186,-2.4192416743364387,1015.8048627483403
23,8.624456979001328,-4.023171490264589,-1.5674610703876453,-0.11326932400054644,0.025056279752874625,-0.07153547286641986,-0.17248332246986828,-0.7300973296708638,-0.15773483423418028,-35.584625072788945,28.242099039150922,-2.7192142500964804,1015.7958136277166
24,8.838534737320668,-4.256456189641605,-1.477889547629184,-0.16553931264125776,0.08133089994359792,-0.023796469981460087,0.07412483872109715,-0.7171921535349474,-0.508896358528226,-34.27735158184379,30.147959063288805,-3.7400704748796034,1015.7895460553245
25,8.757621548747506,-4.397877798780778,-1.397535241796381,-0.23631787827314898,0.11790772941695082,0.06735877049699279,0.08112265778610199,-0.7406340488770279,-0.9995281591886798,-33.85839116173473,31.064050067360338,-3.2414751875230077,1015.7889123031251
26,8.734238654364322,-4.367747529710207,-1.3101200464309444,-0.33226676856950543,0.1097766963999376,0.05854206701529806,-0.010402101207967057,-0.772742641056841,-1.1228589566862077,-33.63765764685761,30.688703584548986,1.3798030434443098,1015.7961186257311
27,8.726073792102186,-4.125994692770005,-1.262913919408743,-0.27484051244169627,0.11901335884506896,0.11001073020805496,-0.06207327603058246,-0.6805142171514131,-0.8142876072400277,-33.3392852799048,28.768686548270047,7.289637700405825,1015.8058709801145
28,8.486780258679438,-4.1296095157461705,-1.1808973077953455,-0.2056933833195036,0.07649490542044224,0.0013026240260144567,-0.27007474735292386,-0.5743412647236371,-0.44139882517169204,-32.250411672155906,28.700975917886957,11.561343151224115,1015.8155852341711
29,8.504326137329965,-4.24295685985339,-1.2220657102715604,-0.2149018616342363,0.06349410902486825,-0.06616069362624534,-0.20069242326398737,-0.5789744020192057,-0.2817836330515867,-31.246578741122903,28.661653023400802,14.87650146897833,1015.8270033735724
30,8.521952614694468,-4.331123669060291,-1.1883535603795998,-0.18797549117081974,0.02186167382632733,-0.05232902769371553,-0.10857269665464561,-0.5003632675998931,-0.19155354628778376,-30.45130058353658,29.00938942063992,16.08657889889568,1015.841355265854
31,8.608271039898906,-4.293704774395999,-1.2397146905944751,-0.14836337727981763,0.022217785296448397,-0.031085109332030014,0.004988804579459397,-0.4038579318035576,-0.09597702231435198,-30.18110711816295,28.687316035346143,17.621526684484962,1015.8545916030615
32,8.517205569880788,-4.3009861562390395,-1.2919806830404037,-0.11148744372650682,0.05104230975597329,-0.02387828430803828,-0.1524990873230878,-0.5372998170797851,-0.08327773025154768,-30.544423742144684,27.60302542709305,19.193210383724846,1015.8658082385695
33,8.547295800055037,-4.214423389519293,-1.3007061590802054,-0.09496896381384647,0.04126177673322369,0.055477410276851866,-0.16877532362676498,-0.6056437292026864,-0.0339960164888077,-31.091297460610498,26.94687914612569,21.118695730227987,1015.8755508396057
34,8.64112218786357,-4.316720390554442,-1.2655705352808122,-0.05387078256855591,0.019544977105746472,0.12021968795193494,-0.06805851565057407,-0.7155449566775173,0.14839679160838098,-31.1848977374053,26.922588274411158,22.372123650174792,1015.8849285566531
35,8.775947971535665,-4.3652823895159845,-1.299402834090905,-0.059004780285010466,0.0015744766998924513,0.09669021423348378,0.10830308076154165,-0.7238348824670249,0.12996033857835135,-30.944149581207157,27.25575617096154,22.79084219700951,1015.8917728182865
36,8.769251531478554,-4.4406118510329,-1.304625310629758,-0.10193947918411063,-0.016484205500189787,0.030484954134486777,0.08710251550765774,-0.7661497437914901,0.07087851665491632,-30.99063963687957,27.598742344794605,22.84036608096128,1015.8923572154634
37,8.738541546598448,-4.474717545229676,-1.2886886249372902,-0.13210530734621656,-0.01559292878523588,-0.06087486723003101,0.005722262333648892,-0.8872989092961359,0.11403122935506052,-31.561612194104736,27.294248242882915,23.296208714944747,1015.8900219265344
38,8.4640190212153,-4.350549941253781,-1.228376694045399,-0.1097800953386778,0.009068496014329746,-0.010840114620645318,-0.29198519566244296,-0.921359972770192,0.1939292900781169,-32.07583920592558,26.694973576854906,23.571599542049544,1015.8836181629147
39,8.550181764127984,-4.447228282742596,-1.2332930079816387,-0.0674349530094834,0.020153206428113767,0.10213811669620737,-0.22169358805130135,-0.99810566159944,0.21577218384026448,-32.086294905716976,26.674442549320858,23.84473872532431,1015.8746778389212
40,8.717178181858081,-4.578542003013962,-1.2644898944247678,-0.07511305940800206,0.012651009464763597,0.1183504945233303,0.01452915986654954,-0.9696783615927438,0.10210847319186518,-31.65679965531829,27.282230153687138,23.515575055577727,1015.8679261382049
41,8.713576765294382,-4.651073949324077,-1.247341552581361,-0.08184979700000175,-0.03209977537909378,0.021293161634647825,0.0351242297585271,-0.9807555284404269,0.18137848186692743,-31.473951178668266,27.475252107301333,23.911389211465043,1015.8629984514913
42,8.678945664347447,-4.646712187289681,-1.2702778250831284,-0.1285815815897794,-0.010043478707710773,-0.06773578483731274,-0.0170632239808219,-1.0593468628515263,0.1713535072437461,-31.685027892274555,27.279331178325666,24.011929306836418,1015.8605974512445
43,8.368759868040401,-4.532513903168164,-1.227035668622949,-0.0798136406990577,0.027863650237865717,-6.240194438011937e-06,-0.3668372885805488,-1.059750093175708,0.21977467992582797,-32.016443414924815,26.843076223458826,24.022341096462746,1015.8617511665237
44,8.514234161491892,-4.729614151936389,-1.2259218559867537,-0.0481208597237475,0.025492127604620073,0.12461617707189707,-0.19458968714998393,-1.1503930188510636,0.14019635858548285,-31.797192061119887,27.20762769395979,23.598101500698785,1015.8645718225507
45,8.648849545084735,-4.8288171221462735,-1.135045450904808,-0.06757230817988391,0.014973236855094097,0.0766450057578845,0.013533985876782562,-1.0980870092192605,0.10433257723929407,-31.569764091782936,27.83959827679968,23.122213790452193,1015.8675992410035
46,8.645798822966867,-4.879545117378945,-1.1142472864918154,-0.10529876135470342,-0.018047337336717876,-0.020588145567098703,0.026489126562134795,-1.0742339398981429,0.16716233927663898,-31.40435833963528,28.011864068308807,23.432863700514734,1015.8698087835533
47,8.481698789049778,-4.861799905853839,-1.0423121370803676,-0.07938763731097774,-0.017512651717915818,-0.07723928033319206,-0.15772896880371248,-1.1704756917941768,0.316657346254292,-31.602735229353684,27.692686140717026,23.80089314561115,1015.8699374363846
48,8.31962585678605,-4.816315337260957,-1.0340706980823493,-0.05037911095395024,0.03877460215546165,0.05305257105183693,-0.3499527379809911,-1.1822563292286643,0.27917519112935063,-31.599867439868124,27.386161641849036,23.427623089439784,1015.8657028900269
49,8.572213887939242,-4.970797166431697,-0.9699734278737114,-0.0625170843095063,0.027425779544423802,0.11860629082924395,-0.06256386972045314,-1.153696602420308,0.1431631460268205,-31.50824017591235,28.02147866092144,22.630941354555816,1015.8626123326727
50,8.575721892942253,-5.096147792477834,-0.9072586206555224,-0.06415847516444832,0.004485341667464976,0.05051599734704522,0.015619149830071927,-1.1080396493414117,0.14992364063019695,-31.196649768516828,28.598444581171115,22.408584594031463,1015.8603567085861
51,8.589229926366432,-5.098281025134731,-0.8395094456894031,-0.09031974356555285,0.006896143519124478,-0.06127659768497877,0.016304466256639845,-1.1021744325126486,0.18428896021374724,-31.35860661647374,28.51431895724234,22.325650529217327,1015.8594525744722
52,8.349899578347312,-4.97848923636025,-0.7359484463951246,-0.09152006437563764,0.0062088358563144866,-0.07247211524365375,-0.268665486328556,-1.103976792583872,0.22906707276918567,-31.864169557506333,27.965190589088316,22.15094202446019,1015.86134837557
53,8.338537935164563,-4.968487494103667,-0.6595866133337626,-0.05510991938877924,0.032924416095808845,0.04588337290352901,-0.32978092158490646,-1.1110678097418902,0.25585254492373466,-32.16408361413903,27.650910229557134,22.090968934520834,1015.866029811103
54,8.5456329022189,-5.088564419442494,-0.5454834549312386,-0.03725862948022886,0.03559776500813983,0.11883519722095218,-0.04156917619777417,-1.0940828271775795,0.2386275539981531,-31.8747472839918,28.252048540173632,21.609990838751003,1015.8766194453276
55,8.57376659985107,-5.165607155077894,-0.43822560486945394,-0.04179517580564797,-0.01146326916543336,0.03472151853564251,0.025904531403092304,-1.039537404690181,0.2678858647507164,-31.540966316019574,28.790066482642008,21.31315822789254,1015.8861620528916
56,8.595709567023963,-5.19367553584527,-0.38023238643038565,-0.08163294415598736,0.017682041273845178,-0.07534630197476827,0.041812175770112786,-1.0618147160560993,0.2675795013576528,-31.54723740471892,28.98403652948371,21.035906519316278,1015.8948372948782
57,8.295947260109436,-5.063209680179984,-0.2926385222517407,-0.06931826181613722,0.008155601504925461,-0.061046367875875994,-0.29968904943391905,-1.0511860743611097,0.32089038640228285,-31.79337112266327,28.509557748159402,20.971504999776446,1015.9015397908316
58,8.363556772224399,-5.141366605221521,-0.2733230588495604,-0.05919500337736122,0.03587101585131038,0.06386729024108237,-0.2599538621398124,-1.1093039233515136,0.23768034563975468,-32.04486385926493,28.55946077075266,20.60951368346118,1015.9064315658682
59,8.505186958459255,-5.21495915483703,-0.2141658514030104,-0.01794917457169063,-0.004103738804884995,0.10963596695627392,-0.009512040032782443,-1.0071662996842752,0.25102305194176633,-31.54753021735279,29.306984295218605,20.424476451769287,1015.9049725694513
60,8.491643729662991,-5.329086685761754,-0.16340749530087878,-0.05600330102989194,-0.03087065743489886,0.026689290716467667,0.023497435084648216,-0.9763500771178305,0.1533252610181866,-31.210006437261224,30.191269695274716,19.587450059181293,1015.900445137812
61,8.500139982239975,-5.365436641711949,-0.173251696417741,-0.05950246599552006,-0.030450192648632152,-0.06381628107905715,0.038819735501160454,-0.9942400840936249,0.24089821477097573,-30.88322248960165,30.248781314450007,19.83405508888029,1015.8896177799218
62,8.282856154548629,-5.276108537384845,-0.1472373467309188,-0.06278044279644185,-0.019854480293208767,-0.07571259016584579,-0.2432487281549851,-0.9849538876203454,0.2646549561887788,-31.15922704616896,30.079325144531808,19.626258932879196,1015.8738625992571
63,8.195498184969956,-5.264885202666325,-0.2008148705444541,-0.03962319364628926,0.029436351072679483,0.026330506078944785,-0.31864003612951913,-0.9793795214627133,0.21170519956598666,-31.26916473030869,30.31758507544282,19.445022577534218,1015.8621576493285
64,8.315096229337657,-5.345087573965344,-0.16827455747774675,-0.03277244670249686,0.02509164899711638,0.10778042032040772,-0.12479121863581696,-0.9588075196197159,0.1329871399515777,-31.097280997965388,30.887866585744636,18.916471559765608,1015.8536148643328
65,8.413081132663315,-5.379722319038625,-0.14048936620830196,-0.047829841109275226,-0.0019366022454183722,0.0703503961448706,0.017534304084699887,-0.8732938931124076,0.08808955004507418,-31.206885918056614,31.27493828372068,18.419058594559427,1015.8496163188922
66,8.39264347475455,-5.45025388971171,-0.1427415080813334,-0.0711005074360623,-0.02614863032321267,0.009566424329616574,0.025085553942258046,-0.8665723033125758,0.048807340543806595,-31.000307742266934,31.1232933009491,18.501532072093944,1015.8489343584628
67,8.418753249911576,-5.4365649714127295,-0.14347228989509495,-0.08117748672093555,-0.012423065878977672,-0.06701876796309199,0.03774119858018923,-0.8733022979281061,0.10653080101938481,-30.985304924512242,30.841579725189234,19.021734737588822,1015.8551146252809
68,8.260263201676368,-5.349380197824308,-0.13936807906781448,-0.08529512299033572,-0.04203505259972235,-0.08583217230910807,-0.15396173004451125,-0.8836920422022965,0.20141256892306203,-31.10257936032214,30.40032208298178,19.53992273057496,1015.8674781553937
69,8.10950305698646,-5.259935044134136,-0.18221709006542147,-0.05857713621016243,0.006066511593306616,-0.014930262707732497,-0.3296186709981208,-0.8426786652066025,0.20814879756173862,-31.180336164354287,30.223569062824804,19.67712900877222,1015.8778413057005
70,8.240931752417415,-5.33241712862902,-0.164654821516838,-0.03824787349671985,-0.010218466913814676,0.09410668467554047,-0.17936150662817665,-0.8689907928195099,0.22586557148701697,-30.98053428012186,30.35557712398283,19.572304454564048,1015.8854047865774
71,8.382378714147412,-5.448247268394934,-0.08566802844158487,-0.051246534305569094,0.02549092219644843,0.10259044800025514,0.0354109163978763,-0.853000766598679,0.1533696299246825,-30.49308198780492,31.115612392225938,18.795517604162328,1015.8836699010421
72,8.34165496376505,-5.50407540333725,-0.04902400988684014,-0.06947935611390177,-0.027598817956607038,0.03436392293887673,0.0537338689392327,-0.82234864083578,0.10363206379962059,-30.371285087267896,31.3854359227089,18.637770129870365,1015.8753750514469
73,8.38474320630149,-5.504009032390399,-0.06569284722250951,-0.1183426724166517,-0.015855107616791837,-0.06077058367649828,0.071125231658287,-0.8503374803589472,0.12650588541947247,-30.623361464399725,31.034790640352377,19.055969424583626,1015.862622583723
74,8.260002133509833,-5.364936095790967,-0.05868731466705486,-0.11037734103735938,-0.02582438344539913,-0.09163690079099289,-0.11373819770279396,-0.8811582200785911,0.2456642524170568,-31.06612617968393,30.109623410701804,19.852431612293362,1015.8475852611176
75,8.13157275586138,-5.245542310831924,-0.11046979078510305,-0.07700120404256358,0.037130993871867995,0.013193448903357871,-0.2993217107695519,-0.869990030456078,0.22294666537325009,-31.195735856447694,29.6650367356074,19.892885469807467,1015.8336834922246
76,8.31565814603608,-5.367266968933787,-0.1117171978756522,-0.07216099094880725,0.030644425221334582,0.1067127964713196,-0.11254510884914601,-0.9286573763988839,0.17646149842276343,-31.24776378475897,29.86322870333993,19.54663614249592,1015.8217030118755
77,8.413396616021117,-5.414564479213453,-0.07011198998513714,-0.06478730053852932,0.01297517127532373,0.08557040815315257,0.06088527052748241,-0.8763395205236899,0.15363166532832184,-30.946565754197326,30.328689494541653,19.16090712212464,1015.8129591327138
78,8.3374584510178,-5.44478961558516,-0.08120105257258238,-0.07934220579549381,-0.021875149236755216,0.012057907794260234,0.0170560897584959,-0.8574235514841292,0.17304969421021693,-30.806051964193202,30.422521271983165,19.28206786992845,1015.8061446765721
79,8.406973881166246,-5.4442043404377785,-0.08904012324162695,-0.10514205646658352,0.002222592726091134,-0.055338801866786566,0.06126453924506806,-0.8797762678224361,0.14661311989840983,-30.855404603956586,30.3335737364769,19.041680905941202,1015.8008002636087
80,8.305058588490553,-5.379868152066217,-0.1012586580056731,-0.10834060283906533,0.0052800891327793986,-0.08388601609534474,-0.07209644412944491,-0.9014610856131471,0.12585708998046485,-31.374823839452255,30.032644452474187,19.156492473335934,1015.7968996770062
81,8.085431993333842,-5.237328748359876,-0.11883515071325669,-0.10717485768427061,0.056415158389938304,-0.011171255348880846,-0.33558424573447954,-0.8057375611776663,-0.027431114079432772,-32.264347055106086,29.629062352869195,18.989382054638625,1015.7951245677967
82,8.228373514987426,-5.346017998842712,-0.09883435247705419,-0.134370217358374,0.06861978620009843,0.08285534382070733,-0.1609962187269586,-0.8819619436117057,-0.21944457729080552,-32.407512704444876,28.175137684833253,18.139138744084654,1015.793829015367
83,8.41504001369046,-5.397746624628489,-0.025396278013152584,-0.13218562627216163,0.0577400806136278,0.09372660945388467,0.08916805783295947,-0.8296767334404203,-0.14284915223595404,-30.16371660768875,26.92495070162321,17.937324177776006,1015.792883464474
84,8.45950598261674,-5.388921602813154,0.04132299197426878,-0.11026692600037041,0.002788903249579734,0.01754938840871581,0.11683430022754943,-0.7926707019341543,-0.02912652914326755,-30.778889164377027,26.237251498221507,21.942671950992672,1015.7893488852735
85,8.498754984937296,-5.31698914454891,0.010044326659252749,-0.12736415345464724,-0.00490446244410603,-0.05682103355156072,0.0925523270078977,-0.8121825808083878,0.09369642894971186,-31.95241681408436,25.64480630992302,22.343998126256878,1015.7867691946004
86,8.389516677180486,-5.202175157051577,-0.012748959354661193,-0.12623761742547288,-0.014460880073632764,-0.07922729763169681,-0.11267900497749356,-0.8515485481325559,0.1891201412799534,-32.92246529890738,24.864112054684174,22.613508896167758,1015.7871125105733
87,8.172886046496835,-5.049644583173717,-0.042920146523645994,-0.08993785151889225,0.03688860557711831,0.008670128501602758,-0.3281594027460637,-0.7314714033736064,0.17843717409676646,-33.57764042300704,24.717827680974423,22.772627017312914,1015.787569206793
88,8.335889292939823,-5.20633640212593,-0.009609886738514463,-0.10119296890548211,0.0451680825565588,0.0968008388105573,-0.13700932853593017,-0.8234068206353865,0.18852306993638013,-33.953738413245745,24.70092240483222,22.6465801401975,1015.7931789446661
89,8.471196118501311,-5.2780140406068625,0.0783132865160169,-0.0700481620041318,0.01074286974477958,0.09518931063698019,0.07323606677526481,-0.8004698718562744,0.2761744999878638,-33.9825554134054,24.970782420312485,22.50644345311301,1015.8025085342357
90,8.490230279662114,-5.336469890477633,0.10810448075181986,-0.10157898890348974,-0.029371891882857208,-0.001989284995805321,0.10407122750495003,-0.7957480356208378,0.26820072977451975,-34.078908786537035,25.178822637817884,22.147329156424142,1015.8150682223547
91,8.441248588914483,-5.2955207106043005,0.10050854826165113,-0.1287607703037706,-0.011593131786274639,-0.0842647003921033,0.007708777114832449,-0.8769466198557517,0.3011527283516439,-34.46357676929581,24.701450728352096,22.18786939213087,1015.8291403292044
92,8.131430082442963,-5.191999024765572,0.05593265532354541,-0.09002674566251614,0.009048750970508501,0.008373751688684233,-0.31959274317445097,-0.816072963800734,0.35645028135057366,-34.485590422083426,24.360412377297482,22.644474291745503,1015.8419048511225
93,8.29901908513402,-5.453548302397481,0.016882013102414987,-0.052192127256468775,0.04263564561389293,0.11157811158854895,-0.07401898106029164,-0.9524843045312686,0.3661440761747624,-34.07727247544107,24.777323128977006,22.870785945903286,1015.8512209581529
94,8.402307358663942,-5.52002113391966,0.06811862183451184,-0.07467301708313716,-0.009796836592024467,0.03572568640153581,0.08905810161198546,-0.9216121027075479,0.3322317320447612,-33.91861366092911,25.436969329627157,22.483850106075636,1015.8574637392021
95,8.416747995697223,-5.485830842493042,0.0590233441072829,-0.12266016065921685,0.007642329497893494,-0.07751164637484466,0.05594369854626296,-0.9664448774102451,0.2727258445687024,-34.291650908065655,25.358721016742543,22.261104831504493,1015.8602885630096
96,8.126257751921633,-5.287823753684494,0.056676761546951615,-0.10625829141005513,0.024394621572734948,-0.03535370153966314,-0.30596198626639554,-0.930602774277395,0.322797990028298,-34.77315738705253,24.66864251328403,22.543049888435593,1015.8600417582876
97,8.32842980183981,-5.420603666431694,0.09950967093636032,-0.07537256472884085,0.04663696021360737,0.1147126205961431,-0.08515889499364213,-1.0081278021313207,0.31423161800524724,-34.83301097608976,24.892839836855376,22.216346443695997,1015.857697407981
98,8.437780457027968,-5.51585512033185,0.16598270868922013,-0.08936941420331763,-0.00530034801869992,0.0456063787911167,0.0979668230478257,-0.950813505015516,0.2694963554440807,-34.597290128591915,25.497353649829172,21.72458987268181,1015.8558628020057
99,8.429834690217827,-5.5003419432930265,0.13011574670311735,-0.12171054960879196,-0.005200798909626019,-0.07358180916210985,0.04916264641827573,-0.9984289726942273,0.3137868447290611,-34.74796423231369,25.122024953870145,22.16040040282566,1015.854400229764
100,8.10721757397018,-5.308599642074766,0.11613820670774411,-0.0823952940371791,0.012535342616238062,-0.03158697945959497,-0.35416894821052347,-0.9647928262772246,0.3425303872731675,-35.093478324504794,24.50235390479519,22.330706017552153,1015.8483446162028
101,8.324913589827927,-5.472667397994535,0.15605650823599979,-0.06683005902818825,0.03665797777875833,0.10772371896958896,-0.10153543045429636,-1.070736930075586,0.3554897043149322,-34.99863383305897,24.828427449232517,22.130492424484277,1015.8417610130047
102,8.419902537780528,-5.530943754276317,0.1593870841671894,-0.07590969558245539,-0.009314149911186863,0.04872464186870454,0.0845852488754211,-0.9944623164490537,0.30541004493724266,-34.59007058601625,25.427478129184294,21.897358763098755,1015.8369560111071
103,8.417159452494323,-5.543789064303471,0.08451485506611639,-0.12479157313627263,-0.004316200730044359,-0.05866963194738724,0.061961919400712745,-1.021930620532683,0.2823302312196581,-34.587897678752164,25.196941042674396,22.172617735452448,1015.8350360079087
104,8.163667106210053,-5.352772720777115,0.0564857906123994,-0.09003729955150774,-0.0049581437031315225,-0.06990489303927294,-0.26584195045898684,-1.0033934710318455,0.3449549358904865,-34.84373670678291,24.470359971489504,22.55914724830679,1015.8350362759284
105,8.197006768414274,-5.411028857259748,0.03303360235802477,-0.05417654063274997,0.025971831588195177,0.08653455371778504,-0.2485793681216407,-1.0768516908984556,0.3238407357905409,-34.93600151439471,24.469707801119498,22.486496194700297,1015.840580887477
106,8.42031290193864,-5.478494683858634,0.09907200772601786,-0.05556561501176729,0.020874253600894427,0.09340826453127202,0.042456125523568394,-0.9943600361344015,0.2596508197229609,-34.68330246091534,25.108236037976454,21.93847735804662,1015.8492445574343
107,8.41199640852766,-5.490098004434342,0.09227441683046832,-0.08459038882226008,-0.016833408838199004,-0.006437682840988168,0.04747643987274794,-0.9666608268668408,0.24466076129125158,-34.709978861288405,25.188873398866416,21.929909362581608,1015.8555676831351
108,8.397228974727408,-5.452889575109617,0.10600510802301706,-0.09767901533071391,-0.0013255847604896013,-0.0963989139519748,-0.026706225239600895,-1.0152700334187355,0.26005306028339575,-34.964396446133485,24.88922447265978,21.8754174509384,1015.8588223406225
109,8.103110519626474,-5.242333970648297,0.11953667666293091,-0.06682509186321389,0.019664876013258656,-0.017493420698575082,-0.3680614983974412,-0.939726432219115,0.3138783590513367,-35.336612331286396,24.250856074109393,22.094626700773432,1015.8588892473417
110,8.318347540232736,-5.402462840154191,0.09514332994111996,-0.052580806099462446,0.033354356559086376,0.11343641667036615,-0.12657842706830114,-1.019868076071293,0.24844262377065246,-35.19376115091238,24.58624982687481,21.881316467998726,1015.8581135620366
111,8.441006081717028,-5.434199815893652,0.12803313358442517,-0.06689144052223273,-0.005108731753187344,0.05782106723329891,0.07502733212912607,-0.9394885044846313,0.25604881961103765,-34.87083006201504,25.107582934267246,21.874390570938893,1015.857547432935
112,8.449855046871734,-5.423474590307805,0.08087151782401608,-0.09981654213652877,-0.013104201131287458,-0.04670757507879314,0.053935604536398576,-0.9598844168077098,0.29497455586206844,-34.87048268380719,24.97827750193447,22.218089200073955,1015.8586595490992
113,8.284535364692813,-5.339062928378394,0.06777383882166343,-0.08462083959061567,-0.002548696550995544,-0.0838299864014308,-0.19407580417648446,-0.9904916263949602,0.3008815710719498,-35.190556565642694,24.634982415146123,22.155049842094293,1015.8602130691312
114,8.21097107966101,-5.296332588971463,0.04352528311786606,-0.05391163722590343,0.03698080387752476,0.04762368774470546,-0.26822043474626284,-1.0399053795133506,0.2988097007318218,-35.25992934214127,22.9103504937832,20.41980743764652,1015.8636348490345
115,8.398505305108968,-5.391101807827145,0.07379849637468745,-0.059701000767674185,0.04626702417124083,0.11533442496248485,-0.009551260044884546,-1.0006668586957352,0.22351947736389882,-32.73559734368721,23.25635674869401,22.90193391930056,1015.8662971442086
116,8.431349033437696,-5.438910092873087,0.12832556188598626,-0.05802567885610043,-0.012193722192276275,0.018542358169370693,0.08156270120395064,-0.9402506028831891,0.29212074936107335,-32.92323779976492,25.25028718726148,24.265343697102026,1015.868405134171
117,8.530070243605273,-5.41255401300171,0.06385065056174882,-0.07177929608122845,0.020731324166350838,-0.07818883378942655,0.14058709735376093,-0.9725791046008117,0.28028342153795216,-34.25633362589851,26.73660302184386,22.69157747264594,1015.8718190619733
118,8.181932402044982,-5.268009672325551,0.08356255537834363,-0.06173077762246851,0.014351476320290713,-0.06315052207244544,-0.2684061065022193,-0.9950802009574142,0.29742905793214985,-38.38942385376334,26.847276298973192,21.70794156918891,1015.8743106959729
119,8.293359541457692,-5.290990659159819,0.10714749842626131,-0.041271433326433994,0.03744501572838896,0.08127065472874652,-0.16771373152875735,-0.9968859166056555,0.2499358873947937,-38.60066064212632,24.998716036478097,21.537574756332013,1015.8760262700531
120,8.539467857416462,-5.320356966836277,0.15331502367522404,-0.04635006655123172,0.008638036465329912,0.06712587887711165,0.1070948679226264,-0.9104885962145141,0.2992915287401179,-37.283922967974725,24.893159222639298,21.844949754880606,1015.8755058762325
121,8.563536873429742,-5.297622589582206,0.17439501413527708,-0.07721255709925522,-0.008443682742695316,-0.05404271621557831,0.10662378016725298,-0.9054224497445249,0.3437296959287075,-36.48437627514387,24.68945297682953,21.97728736982901,1015.8733122412286
122,8.374680895859345,-5.152320530147171,0.11207107403847427,-0.09629041226085727,0.018416072449842648,-0.06661766854185795,-0.16966495371839913,-0.9134070568529756,0.22825430617527853,-36.366733609972314,23.983206046159065,21.78420373300034,1015.8676507824832
123,8.369634950104999,-5.191078190743759,0.08608966922593786,-0.07376362921592161,0.013294604594201627,0.08189105232232681,-0.1681004020501031,-0.9852770962394157,0.23900340753579244,-36.24386705504603,23.627453132220207,22.172806411238916,1015.8580154497942
124,8.503816798798985,-5.314234011954054,0.13874797025940883,-0.04420502416140938,-0.013458812099190448,0.08583151934164812,0.07712753720329735,-0.9123163686919391,0.37767542215386424,-35.17057623657286,24.281309063257808,22.53716006036677,1015.8461395313618
125,8.514613946418521,-5.463295071043234,0.12936651221712533,-0.09225216279927256,0.011847660681623833,-0.03788034975388975,0.14741285886017635,-0.9523923257331521,0.27146216025345427,-34.73108611337672,25.062834929895253,22.037821170382745,1015.8354314761974
126,8.200068102506744,-5.356204142143007,0.18246753297514892,-0.08644298475982118,0.0015021483099165681,-0.06893205157044317,-0.20388101829379895,-0.9547657552802143,0.32629156980169205,-34.746638317872275,24.418379983635305,22.106724903843713,1015.8276162686527
127,8.240586638849791,-5.487244466171715,0.15973416129932005,-0.06286599437737786,0.02426001823880685,0.09701491226213567,-0.1583662047421008,-1.02554466581924,0.25410425176525303,-34.64200688613472,24.28583134848159,21.99502274225321,1015.8225926413148
128,8.330270917284741,-5.272277839463622,0.1298474669427203,-0.07895320955310191,-0.00478083210977057,-0.05233903270146871,-0.0755356946939755,-0.7823633801621775,0.25062979967243965,-34.45712671220101,24.073601181950167,22.120309291410894,1015.8228628944278
129,8.611333803117391,-4.61009295860754,-0.11453593957604014,-0.05061817190944565,-0.013786016178930043,-0.04638439839831404,-0.0591955214300592,-0.611980268756651,0.2585433149747731,-35.23171886903701,21.947288572537726,23.433048312490488,1015.8254510194585
130,8.798587573118409,-4.13766101647011,-0.3234948624759142,-0.033736755697117884,-0.012784270574006638,-0.032898694626923075,-0.06982168341492641,-0.5003836700693232,0.21588676917451224,-36.165391040757285,20.825818955543475,23.94307047793454,1015.8299577601281
131,8.92036177989538,-3.7986055475067664,-0.4728817605743427,-0.02668809312458068,0.009179305128404789,-0.02344277349912572,-0.08875043083034735,-0.4116955364230125,0.12968643966987142,-36.922144086688625,20.04584295710079,24.049359168721633,1015.8348133425269
132,9.007577092644627,-3.5298870140483336,-0.5917208091742339,-0.04471781475457627,-0.00019215537057512902,-0.01608980127340227,-0.11284199167252651,-0.32723625233889475,0.04025532907730445,-37.495112693920376,19.158470354857705,24.15031768555561,1015.8390991432144
133,9.088084779662772,-3.335080944441088,-0.6366588713024619,-0.015445947629636893,0.010177794681986391,-0.014404552034530787,-0.10165379717855233,-0.2823317583872079,0.048375454588670534,-37.95466827324684,18.365744831322463,24.447788959987772,1015.8429690922592
134,8.96843110146478,-3.5558615898736443,-0.5911929750365144,-0.00848249064021457,0.03741674229818278,0.03655889710371201,-0.16907930971329627,-0.28877388621150635,-0.06535086917566138,-37.87216101807946,19.066335815427518,23.834192758615533,1015.8486585571568
135,8.856764596621653,-3.78345093619878,-0.5243304750354777,-0.04880231495653929,0.066974426605561,0.11475627342220932,-0.22054824273019769,-0.36291130596545407,-0.24475005320959697,-38.259084035905964,19.003660503129662,23.036868868704317,1015.8561087746484
136,8.629913396855097,-4.182360941352019,-0.3704333571396767,-0.08013286452945198,0.046364161987709374,0.07043811386661744,-0.24777163732343646,-0.4445129669126673,-0.17342904705775564,-38.00111885637331,19.245000549644974,22.898938127430856,1015.8615462696049
137,8.521587088676284,-4.445665997079668,-0.20257244911873046,-0.020879260207202092,-0.02230288739031068,0.0248645135021544,-0.14619043088097278,-0.40221987349007365,0.2540243683160823,-36.82055127581663,19.973556288239518,24.14684741000449,1015.8654942596497
138,8.50347193137628,-4.6832388008837205,-0.06446599070381656,-0.003970307989502826,0.008083470241426666,0.04346240153369728,-0.03800693344967347,-0.43912060166693306,0.38299496533242017,-35.87314577489701,21.512673601264165,23.91368425777608,1015.8669741052324
139,8.511972361630539,-4.865539018532096,0.026577244312728537,-0.021033968819287756,0.01253725627229571,0.047277080462656884,0.04162254155064987,-0.4677756610560884,0.3456232875022533,-35.321126671944455,22.700609973073764,23.267936209704704,1015.8633134601324
140,8.496216090483923,-4.954348667957593,0.12084982962324534,-0.04026584278413371,0.021020767090686628,0.03671523813862289,0.10228042469200974,-0.44357462549731924,0.3043224016092213,-35.03025296915087,23.707652665713294,22.529154681099364,1015.855179742754
141,8.487081366397312,-5.006536633780356,0.18717111506337272,-0.04255710208496835,-0.01631782509676355,0.010052450262771549,0.09420598932406463,-0.457643438265913,0.31464642801412473,-34.692166672767215,24.46356372886654,22.189470340063536,1015.841844091164
142,8.438396910237511,-5.099148073197396,0.20963119034140568,-0.05025459268661519,-0.014552786535306363,-0.011498827329034539,0.08436383457975957,-0.5022864005640548,0.3355465836337479,-34.105012737303646,25.262649973773094,22.132039727515217,1015.8307095782632
143,8.421210017250944,-5.169499902131421,0.19923878720433633,-0.0573381011977982,-0.002545071610329642,-0.058772237734073786,0.09978844035706731,-0.5386054590195578,0.2996677480977918,-33.52836839231498,27.06387862859485,22.16329123133193,1015.8209340896714
144,8.479742799116043,-5.342856224944549,0.1945009967224039,-0.0787021071478656,-0.028531978504580682,-0.054534014924641654,0.16215818619761233,-0.7249808466471654,0.2268208424909459,-39.25319308158246,27.703934102710928,22.488486972443923,1015.8105017131685
145,8.170858371497976,-5.266024246131191,0.28333207778863695,-0.08609525944407077,0.0050311027388759075,-0.07991958682333578,-0.11510919433563829,-0.5444818190507706,0.33711846000885193,-37.53594360449232,23.005262947006962,21.840724127368293,1015.8028877079824
146,8.107209884404188,-5.285846261526208,0.33845944944029066,-0.04877229091837076,0.002130543232041319,-0.05932657335788656,-0.1870905461491013,-0.5564514926734507,0.36954141812976715,-33.66964277108769,24.396250226509878,22.27785917350248,1015.7995978245247
147,8.015664397297913,-5.243752875561355,0.32396986422476526,-0.07056983968590246,0.05751084487810511,0.004822038667575315,-0.267055752462505,-0.5400323991531923,0.21601695581837219,-34.39338275987958,24.302154870165932,22.960971808060766,1015.8012985052841
148,8.07992383746491,-5.427251677352146,0.37569378218041644,-0.060881514634764815,0.029909778311286783,0.09458462071632441,-0.1522937520351258,-0.633480742121743,0.24724472450158722,-33.759674417604614,23.077009572007732,27.190310801233707,1015.802787064584
149,8.245020095810833,-5.545481822191539,0.4452044094759556,-0.05317315433580712,0.0324386121243617,0.10279095712957576,0.11021536069927518,-0.6379818185182521,0.26155437932023345,-32.56759378070667,23.320991389818214,26.364606940011285,1015.8041208083542
150,8.225176005962819,-5.641694411266462,0.4741428997006975,-0.06720588521303061,-0.016451136545574264,0.02439608575889038,0.13007289530961244,-0.6596810938469613,0.23540805984282476,-30.318679821323133,23.613218311233997,25.318070803653107,1015.8139364457745
151,8.088061754577835,-5.6124652959868895,0.47303462326952417,-0.07070130118582385,-0.017055566140008915,-0.014989819108922976,0.020649569787488234,-0.5596295290242683,0.36663265257523303,-27.579821784168896,29.36273758246982,26.75592107699544,1015.8271188678602
152,8.337091535051593,-5.062883275960461,0.30582095634880324,-0.03180251351632139,0.005383395765050512,-0.058795648731976666,0.0008344367174203879,-0.3679452521698927,0.3795779556761258,-37.4853398863872,32.908977892893695,27.088100829588903,1015.8453141945844
153,8.497486456094897,-4.6316873535875756,0.13538184184938898,-0.04334517348020563,0.021330181118261956,-0.03518658171722651,-0.016685256622403458,-0.17172834468507334,0.17974596023983544,-44.99404346487822,29.062787060894752,25.971241033049147,1015.8619741352899
154,8.659526324314937,-4.320827469191906,0.016278995829593856,-0.05018561304617333,0.006362260902065582,-0.028126180043325934,0.003300541103618583,-0.03656690307671459,0.07549140412337484,-40.38999731950257,24.5478880795731,21.696909535637072,1015.8829963043672
155,8.77485096867573,-4.098381527520606,-0.07190284039722934,-0.025137152845271203,-0.01735601983107788,-0.02703408087884623,0.006453432418874503,0.016729533155976403,0.1612708756546346,-40.93429141299088,24.047994080545806,17.477679462808613,1015.9000911669153
156,8.89438901343444,-3.9458556265595313,-0.13451389074994385,0.007930770818593273,-0.006355448320259107,-0.029543462436213325,0.017903315708409105,-0.023179875537130475,0.23782210472308657,-41.31953224139649,21.774976568943597,17.000604883117113,1015.9170609842708
157,8.967401701023558,-3.816028077917399,-0.18809261262729773,-0.01253302340736228,0.02877925453596081,-0.021942949085107265,-0.005173592801305506,-0.06508171376611875,0.021593550716392268,-37.35691411260728,21.04612390491426,11.700503944594015,1015.9332182210836
158,9.010352374760606,-3.680678719280929,-0.2193399492703872,-0.046478158767027364,0.025277215798492875,-0.019916020018006,-0.03581107963819263,-0.06009439365880675,-0.18933873387078082,-32.16891790460997,22.388927058089312,9.907619654211521,1015.9490914597412
159,8.993593100310791,-3.8800242378899603,-0.12692283372290813,-0.01306537447088623,-0.0008237430189558838,0.09648535088723073,0.046326992527705016,-0.1642590063718663,-0.09151716560917725,-31.323540048028487,20.35532258568582,7.333182568053049,1015.9609444393352
160,8.88296040737903,-4.42356134526335,-0.04613750000299148,-0.03132151432168709,-0.04024533855701609,-0.11917354761912344,-0.02119555384889757,-0.6156086233569987,0.15834185825799216,-24.924904245003894,18.47227053661934,9.995343074478383,1015.9695952628626
161,8.790564378174809,-4.355982086389744,-0.27525935732743423,0.022863099538505842,0.01407414275719706,0.023162744402317165,-0.14425355358795278,-0.9312420434907505,0.20363933569002038,-31.972163074376667,19.8093015074941,8.474308224298225,1015.9648201808038
162,8.921009158686186,-4.0104008785711045,-0.3556730445639901,-0.021002422183417475,0.043564832966020775,0.018875726110207568,-0.08603996140274588,-0.8748956425433493,0.07533264231258052,-35.77262073949726,19.747486914929887,4.191036272865776,1015.9488239124975
163,8.974449689904251,-3.781861698334797,-0.32090686383859846,-0.04135513393676953,0.021159917276971318,-0.03395209097314211,-0.09011748625195952,-0.8143150018026695,0.07913322644679946,-36.81961142408062,16.188178231186242,6.510488271521364,1015.9281213253087
164,9.019572670083676,-3.719602070315556,-0.3088410613729395,-0.08720794341967131,-0.006534691951966716,-0.08105928164336745,-0.047998089962367346,-0.7693800553085804,0.02448839952458095,-32.645837079896985,15.513802323674023,18.701475351086216,1015.9072200617807
165,9.170468562677803,-3.672293161354093,-0.31319467968137643,-0.08675989409669653,-0.05425693766693977,-0.06679236139344064,0.08789981118570109,-0.6672780316177125,0.15589525921674735,-35.55109252725166,12.747865910581975,18.574875003841765,1015.8919654044307
166,9.120540934312416,-3.6275616163682782,-0.2938594189310201,-0.02890089876382264,-0.046859284938303325,0.03112662432276478,0.053363912700325804,-0.5975205978942305,0.14448008706980536,-29.372619972685378,8.125070190882509,13.719337042837827,1015.8808318875239
167,9.123558195098372,-3.4788785271553584,-0.3624543752533056,-0.0387328501406963,0.0020328863483749862,0.08156232523424191,0.029935258954717926,-0.6032029448134613,0.07621872260154569,-23.77395201827815,13.212216865521384,27.923708912029788,1015.8729946862036
168,8.992471458035418,-3.252252733136197,-0.4278315464296658,-0.032494797859794394,0.014482228109183225,0.06545680406938859,-0.19156973684673803,-0.5806359458013867,0.10690221462902272,-26.809112125733595,14.894500771729238,29.30609850184032,1015.8717679916195
169,8.934844390280094,-3.497965811554437,-0.35887754586863946,-0.08847419745562216,-0.018173257800343776,-0.06367864536933748,-0.11947472069078134,-0.49805715798024836,0.09555143940962095,-29.008658688655977,17.592453509384168,27.898625401308667,1015.8708726961975
170,8.953288099668276,-3.650415410321793,-0.26676998900027965,-0.0125049030854332,-0.047096594466160206,0.049939670403522846,0.009035546744540143,-0.34993946447596336,0.10039221462703114,-29.848367097258272,18.87912602615242,26.17912816401633,1015.8665092151375
171,9.001262451786014,-3.5523744337141614,-0.3400600153231285,-0.07991753535864654,0.02152433900698659,0.09999680960024374,0.03563574793786855,-0.2819414809307773,-0.017646410136327575,-31.691284896002994,19.239539878963893,25.12793073260172,1015.8581305322618
172,8.922011682560036,-3.4740117227907135,-0.38388569636110204,-0.04245275614715099,0.010429683988302905,0.03705542330254903,-0.07849856061248167,-0.3170242205791001,0.16083613135051456,-32.78131200542137,19.196746503755367,25.17850456191873,1015.8479962886482
173,8.867017121401455,-3.5473832484263457,-0.3498365852564545,-0.06379694073423924,0.00011803332541969296,-0.06470627897759353,-0.094508911327291,-0.29649456425496423,0.13640183295539474,-33.46821385671633,19.869975810317978,24.280584213743918,1015.8362714310729
174,8.978654987553638,-3.728078560325091,-0.27990048910549065,-0.08861383919180588,-0.02189672153658362,-0.040950796622137214,0.07270438930172068,-0.268405988952865,0.06437610730947065,-34.04851664964326,20.979496642378518,23.164221680733974,1015.8229942174272
175,8.975146687247673,-3.5971221977126535,-0.49132771410542986,-0.02742078276691147,-0.013619340660369076,0.009198801948130171,-0.06532006340839228,-0.38956638262180965,0.04211495651688459,-35.12850878370556,19.983867643382688,23.625628126415418,1015.8073264491804
176,8.974690639127033,-3.4747955055890403,-0.645992427069235,-0.03877336073728045,-0.00881970313051042,0.0019042378305074758,-0.15541779813636242,-0.4154263968972737,-0.0352319475770605,-35.942784583187354,19.321715418141967,23.786444357451714,1015.7905944730055
177,9.108486784479002,-3.2827068519816773,-0.7581956010380001,-0.016009879089953917,-0.022256714749571672,0.0009909502146617233,-0.10390478307244577,-0.3708801781626676,0.003912974324913672,-36.34109021019758,18.6573492594039,24.39816112019335,1015.7721994087537
178,9.08260318723919,-3.0145599992646237,-0.8253674231351151,-0.01772904327450259,-0.035313522494274094,-0.05492416503239586,-0.20299710228327839,-0.3533264370573029,0.12759299817112144,-36.73716411890009,17.799667799476644,25.049953731485537,1015.7523017530096
179,9.274558867633715,-3.2571524027158354,-0.75721937912223,0.09758846219389711,-0.14032975556057803,-0.05578517104120741,0.1859472367156083,-0.34632021250951767,0.6131499804626755,-35.061866617570985,19.679018322691867,25.772183741404024,1015.732812480455
180,9.220538699850746,-3.331182768948151,-0.5526050773356915,0.25822637574999696,-0.1251177465258876,-0.005396020141023229,0.22268438416187258,-0.3679890990428324,1.0119722912818827,-34.301566502454484,22.379194724911482,23.409430128911147,1015.7171659834903
181,9.160501405237463,-3.288757590350687,-0.5457459656554867,0.212413815024017,0.006776120458066859,0.04647879021012672,0.1913188278536853,-0.3150580019459368,0.8412299301852199,-34.258208257207365,24.314930050730275,18.028965971997117,1015.7036131963476
182,9.137674381975268,-3.351355430921638,-0.44634251395427604,0.1522812403279204,0.008449816527466191,0.03841812275017519,0.13732879836851608,-0.31652793266209345,0.6872717995366285,-34.24641853578497,25.98224245860899,13.558302232470478,1015.6915884903127
183,9.024031411665982,-3.4100672536651997,-0.3334365062827367,0.08024037088950332,0.0030565414999843433,0.008946343285346315,0.0039121177315945,-0.3769559175128435,0.5317755339001573,-34.405462925676005,26.844236945492664,9.464846489861264,1015.6810603702751
184,9.038001859768565,-3.473872568813254,-0.26700710515092374,0.03369762470846683,0.008987321351219948,0.005572145072069254,0.05792767208638232,-0.38708926451243847,0.292805060717605,-34.12040131393543,27.791724701156056,6.184104874119571,1015.6721399822832
185,9.045254929619327,-3.5732543678298936,-0.2533979210142883,-0.03752182621424858,-0.010958743918278276,0.004611162172313718,0.05361717449448586,-0.41073509202315245,0.07321163188473434,-33.86206641308362,28.585295691195945,4.322122202619959,1015.6656294925195
186,9.08111016258424,-3.579321349968746,-0.20889958862369068,-0.025598185031646063,-0.03656555394166105,0.009228965137515227,0.08491578859065785,-0.43568820043211703,0.14317193591827165,-33.84068598094567,28.993798697469522,3.9334378356163158,1015.6623412882076
187,9.126214197200213,-3.628414547729012,-0.21564810597197487,-0.021931224329877243,-0.02273412310600358,0.033994989957550625,0.15266737662460564,-0.47698982615570684,0.20971287015865372,-33.79465465904654,29.312138863115393,3.2470403244689416,1015.66039473484
188,9.160903721206035,-3.6883636002517175,-0.17078912406337116,-0.031035416537908773,0.0037873758670045575,0.04327750923342437,0.1732034573865716,-0.5332189290375549,0.09751199425038395,-33.770352357758206,29.419013406185815,1.7538942679193066,1015.6602313619665
189,9.204178147779622,-3.716004536814944,-0.14390659391102648,-0.09477328571138109,0.0028175508708914027,0.016091957045273986,0.2388444198574609,-0.5504312334322526,-0.17490557538281712,-33.4780626047657,29.69359194331699,0.3802455190663896,1015.6728499906793
190,9.2052928193987,-3.795834261257325,-0.11506780454691151,-0.10755519226202016,-0.00995135077231032,-0.00048011186963739516,0.23649417776386672,-0.6158365669965857,-0.3182757532723103,-33.422704775613084,29.89613347276807,-0.07959043915997777,1015.69081943363
191,9.18280306818967,-3.7427032424782256,-0.11057766602197033,-0.13801899485585112,-0.06367948652629134,-0.015545505540431761,0.20185097627479004,-0.5764809370453852,-0.31671396902563254,-32.92261448706891,29.81904806373892,1.1492367036019193,1015.7098291284867
192,9.110781738480874,-3.7538563487522034,-0.09151951913218292,-0.07308617387087554,-0.08365308738449301,-0.055851296105016275,0.1268320552010284,-0.597348368125184,0.04086603661515337,-32.788987628676374,29.893743772257917,3.2181920866120546,1015.7315561369588
193,9.199517206179312,-3.7477038117457986,-0.11439363892712381,-0.060181351604745414,-0.02009761196210802,-0.08705333162666623,0.18870992684728255,-0.6784197474926812,0.11814179633690994,-33.016930847313,29.83583840496065,3.21830430850752,1015.7474134591267
194,9.076336098428127,-3.7037014442965988,-0.09966117793699618,-0.07652095303794457,-0.03513890335018788,-0.09338682686074413,0.03908554942164136,-0.7292223375420217,0.042471732174150956,-33.287382294993726,29.975552624539567,2.229843839861627,1015.7571316645004
195,8.935801463848358,-3.6681621866401,-0.09792432875653567,-0.08114923935397626,-0.005421313951053781,-0.0581047830883515,-0.1472663239030353,-0.7694868753279498,-0.0267395356832916,-33.74326250117386,29.25326141004222,1.6170486991565245,1015.7606381126117
196,8.884650134175098,-3.61825397200057,-0.148112316143925,-0.06340225812586278,0.011999957604965708,0.0023423911245021786,-0.2012301939358936,-0.7882188994281139,-0.02099372730060619,-33.6478616461164,29.146689554919874,2.3307114816056584,1015.7620018307465
197,8.997864411652689,-3.692592212823839,-0.11791833388043638,-0.0682630184921534,0.0070970530466959265,0.08073903545411726,-0.08072539093645975,-0.8137766650577278,-0.029223261865420985,-33.455931675927715,29.324359460819892,1.8663310342135042,1015.7629971319559
198,9.14091032828178,-3.726983713398279,-0.07818114534381876,-0.05218248973137335,0.007252760164739358,0.10371547032896264,0.07746633685999571,-0.7885932890299732,0.023491898200752606,-33.11579814452981,29.440221351725786,1.9335408398386937,1015.7655167082172
199,9.211604283113683,-3.753302137601157,-0.08828870714588738,-0.03781121541316203,-0.002097960808751048,0.08610455686479321,0.17478062305501288,-0.7667501081128822,0.029328110692828414,-32.82412974181118,29.71680986480178,1.770836802415127,1015.7691487671566
200,9.214549908024146,-3.8068216682450298,-0.09124015752643672,-0.06673867530408363,-0.023606834887556244,0.021714773957542913,0.20402468253566328,-0.7457785285711529,-0.0502899766258338,-32.6203278983772,30.323659943127023,0.9618415425785075,1015.7717996028116
201,9.195746436296428,-3.817114733966716,-0.11993609918398171,-0.09257528022060454,-0.018382558297417053,-0.029287355840243112,0.17739203053493222,-0.7498445637855683,-0.06048742087125292,-32.81412611081178,30.329898863002555,0.590235574939231,1015.7731572450791
202,9.163978886006822,-3.801999732160366,-0.11913957697880956,-0.1162695977598733,-0.031866995320911126,-0.07716021327406762,0.1231258173299011,-0.7939465846775046,0.014991189104725397,-33.040672727103335,30.069222493822195,1.2137910412971342,1015.768686093563
203,8.972148557775224,-3.772715442513012,-0.12644552862599365,-0.07365621004620543,-0.039257620574455185,-0.06308460919672705,-0.1204866134664011,-0.890145826904696,0.1699345075700845,-33.71025082076336,29.562797680333738,1.5409819479910793,1015.7613213397946
204,8.896032113416474,-3.7065997521201366,-0.1800388465214964,-0.06267290956918863,0.027303332840394212,-0.004163708691521849,-0.18198300223172972,-0.8868041748565101,-0.009464687529712162,-33.81307755402608,29.435463156363305,0.32021903606096136,1015.7537406646918
205,9.029409539567228,-3.7965646976657053,-0.1440488498201004,-0.0818220670922267,0.003206369963076789,0.06580311818624227,-0.0671059316620798,-0.9095281737781485,-0.04312719320742215,-33.468948722043166,29.965917498466194,0.0027086699133009873,1015.74717731011
206,8.97035266044225,-3.96955105671196,-0.09300054812156655,-0.02725821515581068,0.007862145391303331,0.11700695664626704,-0.01362024433769543,-0.9104654124501824,0.13346135459422886,-32.835785704563605,30.89042296267648,0.33856166713970254,1015.7393162208789
207,8.968239311911308,-4.177674911070256,0.00536928345767447,-0.029617642794744325,0.01540706340485301,0.11141072566488606,0.05440906152915198,-0.8852754285119105,0.10331099656553554,-31.861525170199226,31.58976832047401,-0.8443773324397763,1015.732630605432
208,8.935964983484602,-4.277210563337388,0.03602191083799529,-0.05943230914882973,0.0010994228568296134,0.06617212103633051,0.10046566737396907,-0.8317825485455677,0.04080345453504371,-31.146231168351793,32.60836582367692,-1.2030301698380883,1015.7260405213946
209,8.895135428066125,-4.402685325543507,0.06931068688159309,-0.043057471826454044,-0.010608934101139817,0.04029533516616789,0.07884608948512915,-0.8502028379420552,0.07525437604990314,-31.484768503687054,35.08316350025885,-0.8124789789513094,1015.714511464195
210,8.847330480828473,-4.546191929797036,0.13239637209467336,-0.0617119681200379,-0.009894215495672456,0.007078682416111121,0.08267021022790877,-0.8659434599475422,0.057319235851222845,-34.009577455361146,38.585115963030475,-0.8678908377704763,1015.7046541490872
211,8.708245957085023,-4.545799187121806,0.21975593895825993,-0.05261661507759112,-0.023457055809900675,0.012189905512019806,-0.029566233676114995,-0.8027066087725795,0.12098764439093546,-40.724036265938096,37.562781853571195,-1.7212882668986142,1015.6974598488882
212,8.689419741921272,-4.576384206343366,0.2649089223117226,-0.06964938120714934,-0.0071561625258446705,0.013340005039420533,-0.02906771505199557,-0.7644995689285957,0.08878443758659557,-39.55590291464978,34.172170085876935,-3.0981771116895604,1015.6977948834148
213,8.636718797037787,-4.602060261693098,0.28752615776298346,-0.06253624391572936,-0.007843649191943839,0.010222568577048778,-0.05542920272005104,-0.7337031628059489,0.0920333230491404,-36.67907937163643,32.83477210294275,-3.0821869803938347,1015.7060160385944
214,8.617022427629546,-4.623244733565231,0.3428201929624226,-0.05286063174639069,-0.005697450937876108,-0.009251461755642641,-0.032093073546331424,-0.6682541055988579,0.08081701382353856,-33.82602632723835,31.556737630128765,-4.264715022436064,1015.7170452905956
215,8.645365526703898,-4.7030022094191635,0.36886451328502773,-0.11330994699030197,0.008561022818705839,-0.044451180582714175,0.016290818245881883,-0.6955956896896517,-0.07921286670488789,-31.668097516412878,32.45628647039674,-4.909824511249015,1015.7301240146185
216,8.606225732158418,-4.769304619209855,0.3703174795535061,-0.138101959141449,0.05116651015462169,-0.06802340652961011,-0.001734522424369292,-0.7417290650507724,-0.21247773686337743,-30.992968294974492,33.0759996236478,-4.560127238163292,1015.7516241226348
217,8.59369884647846,-4.713864595094032,0.4097144101458968,-0.1519451514320216,0.03505597854352427,-0.07851497846347695,-0.03799059588250377,-0.7234387517009455,-0.24037192383853126,-30.88535414629917,33.413201448855865,-3.081913380379787,1015.7710050961439
218,8.519543693041294,-4.650931610622138,0.41546029980349436,-0.13303113562796448,0.009667455895445019,-0.058672995793321026,-0.12265047053876474,-0.7357012076581603,-0.2034547627581933,-31.049060379253316,33.46436582612959,-1.5188353808738069,1015.7851501792674
219,8.468338278007757,-4.568891983034463,0.4172099066939364,-0.11273105478202788,-0.004123358771818696,-0.0357911648796156,-0.21980854172800013,-0.694000246492977,-0.010459143108399599,-31.21749756253565,33.43423899069641,0.5982687581805233,1015.792629675719
220,8.454885922536604,-4.564929217698201,0.3339331390620745,-0.03581587408955464,0.054619630187723534,0.004304595589718768,-0.23826704289239306,-0.7253064026709007,-0.02213141176690387,-31.257091671661442,33.5737588838497,0.9001305595656475,1015.7926470533231
221,8.524964882495636,-4.6070473171993545,0.416139422757598,-0.13022575137034642,0.11522003335303949,0.009950460579208158,-0.10503864995217094,-0.7497829949068611,-0.46729285015835104,-31.035657071464684,33.718472157697455,-0.49426115700709894,1015.7837556576724
222,8.638472270017221,-4.795219718721061,0.5023523733387605,-0.24037913532308133,0.14289280028957088,0.029257905699343653,0.1614735939320368,-0.8701053147251355,-0.9915144411383408,-31.23286500815067,33.43986500786723,-0.5039420052953266,1015.7712891216013
223,8.726995358347336,-4.829817486274815,0.5767092248028597,-0.2961998078516917,0.1311023831183727,0.03639886240975604,0.30313163751456945,-0.8141775422456281,-1.0768269646322228,-32.74447664793847,31.64221272840889,2.453988668209635,1015.7591398937459
224,8.749167643714554,-4.856574539826447,0.571107433533705,-0.2302929197036878,0.05981761800880536,0.031206323610914792,0.3201731085249505,-0.7558994247144619,-0.6770181849469565,-33.4535025178519,29.43122649882027,7.461782757484096,1015.750272855265
225,8.710398549988168,-4.873839215021933,0.4716250295954082,-0.1632297808360545,-0.005445749717478368,-0.012850924058971314,0.2436140831372317,-0.7776446283793848,-0.334328268495089,-33.785197632822985,28.04401577102527,11.594472586628854,1015.7444196898797
226,8.737580880386805,-4.910821939797487,0.4078807672826926,-0.1464429189461501,-0.0037294132664014872,-0.07084496141082003,0.2261954340669333,-0.8265884585805752,-0.1273648994550627,-34.04462162355423,27.24853793783242,14.175773204348715,1015.7476503016422
227,8.688962612845962,-4.853112026734198,0.37284737106813426,-0.13002974101785478,0.0014240430758112534,-0.11707169035419904,0.06853766401657854,-0.9032234673348609,-0.004470088010189305,-34.578037737569446,26.111125965016463,15.94300563730243,1015.7571191953778
228,8.449706667001383,-4.72006495424381,0.4238091023551615,-0.10880055267066474,0.028841898099944013,-0.05728297699895259,-0.22219015438030673,-0.8865509854416592,0.04784746466552881,-35.17402189227966,25.22422423446956,16.83979429636961,1015.7684200470941
229,8.54658862071822,-4.852441675990805,0.46139410311454926,-0.08904063189643005,0.0630211848541881,0.06243707978145943,-0.12963041979522458,-1.0130739580654289,0.0066708584229778975,-35.572173683835004,24.99834130378961,17.072024473376196,1015.7787497272884
230,8.712321874987234,-4.874998636054507,0.5763842827866519,-0.0870056609432713,0.044710530117408026,0.06979693056551832,0.10277570221846372,-0.9287798491223002,0.14971949498338646,-35.611204304877766,24.8026103732818,17.756630995676453,1015.7862887802116
231,8.7222022819022,-4.908271231657364,0.6020266454486113,-0.07912224360443967,-0.003443815646595426,-0.01535601151441049,0.08506653911972453,-0.9602353844895346,0.25091754293993646,-35.68642759336841,24.562762998085066,18.509075410654788,1015.7911212588286
232,8.741746022090704,-4.874138264606367,0.5947776066864803,-0.09848264655096942,0.00814503484014734,-0.09983121844715805,0.054877064840558605,-1.036426787506827,0.29751814181586694,-35.93887768748046,24.147559905878683,19.048466484885243,1015.7939783610012
233,8.402230397167392,-4.70440598308836,0.5975521623016866,-0.06475505677558634,0.03706851866217136,-0.029345652717638157,-0.3669306464420149,-1.033743943714868,0.34131533716850515,-36.588173731019886,23.36176722698194,19.45273532351253,1015.7927039366231
234,8.62398862857274,-4.880134564225126,0.622912206496276,-0.05646567115459168,0.058825148602212704,0.10176906398816545,-0.1093266006926843,-1.1326611425546917,0.28325465832660845,-36.620752363854486,23.722374052913292,19.250563400818436,1015.7901661062904
235,8.75655543525527,-4.929371653473293,0.6858712519170609,-0.060830692689737946,0.003918865360646742,0.02821493815145211,0.0937656709838435,-1.0392564709923113,0.30910636530488894,-36.29768810161116,24.285505411056747,19.205422057422926,1015.7876336332453
236,8.802735868705353,-4.960596663142126,0.6748060978487391,-0.07007848702884587,-0.0069054984273478875,-0.093831201981057,0.09794851029718869,-1.1018435760701057,0.41845719675700865,-36.219771607827944,24.24939469985704,19.691799040230762,1015.7857853235247
237,8.413066354410937,-4.807066597000283,0.6064269965586762,-0.03992976374933381,0.0017299876186980395,-0.039897594278581146,-0.33777352539050925,-1.105321660702266,0.5100267124502716,-36.239402733401825,23.773270873122996,20.327623771813375,1015.7896717033865
238,8.696529015374441,-4.99957834918204,0.6373285633674721,-0.02225000143424271,0.043502214465596815,0.10269418007029107,-0.046138566805557835,-1.2182578522979899,0.510146435187731,-35.84785053906202,24.63811849370235,19.911446541594998,1015.798526693675
239,8.43695397809903,-5.166108724426866,0.7561359088135899,-0.01963292878136395,0.017127888138135306,0.03475703145350831,-0.10133171333729477,-0.8781755511801821,0.4866152749383563,-34.4037926108067,27.0171318844465,19.05339720989923,1015.8094413575463
240,8.34926755198778,-5.272425171459666,0.7705610784837199,-0.00578368721745944,-0.0016131492170256383,0.017838035896631063,-0.12599484291756025,-0.7359527834878339,0.44699961467052163,-33.678746438695626,28.330789095051323,18.627481903351324,1015.8174073571724
241,8.51933142787824,-5.157319655256304,0.7565643581975058,-0.011915556279392264,-0.014076882936654529,-0.01601341651079663,-0.028952402866001814,-0.7917814835574076,0.3807132147568323,-33.87298249157357,28.06799671974486,17.833194874582954,1015.8166256987591
242,8.701136271805048,-4.851307985751289,0.7013259686834389,-0.013956607928491044,-0.030261471753810353,-0.08347955894360315,0.014694790694922744,-0.8195658315720927,0.4623826753363556,-34.4479598349673,27.060986361632207,18.050476263689006,1015.8041007978464
243,8.619741488524868,-4.6591981261502085,0.6813420925578939,-0.03359130528865626,-0.012968110490537085,-0.08995747954813745,-0.14579909978342576,-0.8807271431830437,0.40490659025272324,-35.1620378433486,26.593532161449225,17.50618750130356,1015.7850867179556
244,8.566095382054629,-4.471096439599653,0.6126079026594087,-0.04230354037608836,0.011944582047245692,0.005751253778087481,-0.26749259122689206,-0.8633257406644409,0.3018206499314551,-35.75264210792974,26.19432163988957,17.203754407184615,1015.7639335627621
245,8.79511449436562,-4.459660825231168,0.6227313585673195,-0.02899836414709495,0.023249426255199962,0.08602832544537431,-0.06340855302065246,-0.8517819668852619,0.37164883718234865,-35.71304856168376,26.335022707981068,17.33560516201799,1015.7426826529464
246,8.949129052481984,-4.473093226384029,0.6496406819381079,-0.02221727938851268,-0.012679616750828147,0.0448003558849786,0.1324779030240848,-0.806205040772802,0.4479843696497914,-35.16559641945405,27.00189399152732,17.21082633522128,1015.7187015200897
247,8.953418624996715,-4.4882921973918375,0.6480512497120865,-0.022704666328681827,-0.025144753248111003,-0.03137062554178988,0.1336709062279285,-0.8116169162313029,0.5097571196272789,-34.901697393549604,27.447111314975658,17.016266560746658,1015.6991998832741
248,8.93582775035934,-4.440057804086552,0.5399009041889227,-0.06732484380925631,-0.024110685640827863,-0.08450880751546347,0.07917271231716927,-0.8517328516544774,0.4376966028457926,-35.03974822194623,27.468841843721243,16.855946123938093,1015.6849667347859
249,8.647148868901152,-4.361878871780291,0.46451695501559803,-0.05188031459316634,0.02758193918586175,-0.034116094040247846,-0.2589930018131939,-0.8600196285652182,0.2952605114435326,-35.30346157589895,27.450176894068058,16.409160546687918,1015.6745787597763
250,8.809848662217178,-4.319624670858821,0.4303630053543833,-0.05656978166710888,0.009034140606215262,0.06390919539827457,-0.058043964997135544,-0.8194968152404394,0.36384935696313886,-35.30235694380909,27.28798630252498,17.07656954010196,1015.6695528385086
251,9.038791972936677,-4.4118214066660055,0.5226126969698319,-0.06108128669907684,0.035498655218374184,0.09582820604362229,0.24652582659292804,-0.7369756860773385,0.3920593051174253,-34.701497413460224,28.062876914402555,16.596516381956356,1015.6708520633593
252,9.0289230927685,-4.460959020435693,0.5845475712594429,-0.10375646971609366,-0.007727915003158378,-0.036092773731276354,0.26322051686058007,-0.7253687400418616,0.3549338039504567,-34.56535521509039,28.49203351389432,15.947075362649366,1015.6845381599359
253,8.835259418401293,-4.388067419401386,0.5783663241081052,-0.10837295003875591,0.020859588349883443,-0.08412314354508194,0.00529292035987633,-0.8395695895732815,0.2975819057481723,-35.144137653692965,27.75674964702837,15.800145352830171,1015.7057186338951
254,8.795832833950591,-4.3955051699865795,0.5437464650598008,-0.08732538327799706,0.0402548356465604,0.05635675417809835,-0.09177441433152944,-0.9112107617452281,0.20572508457098848,-35.426377497251046,27.25172794044234,15.695320052271734,1015.7232794268847
255,9.029538813244379,-4.467026002073878,0.6461819518486279,-0.08963843632602445,0.04011179546192154,0.06685675775514849,0.2337412179173584,-0.8257720285194815,0.20458542390415088,-34.97674194001889,27.748948992183585,15.321629950144432,1015.7360960625628
256,9.033283508422317,-4.481407992170755,0.6940861249144868,-0.08469805047515405,0.005452842613455286,-0.05500192505916647,0.21399263569793933,-0.8327986456144116,0.22178280143068102,-35.07400625665988,27.63603105619376,15.290181746869433,1015.7438427750365
257,8.704302131097602,-4.38340726656074,0.6322566732535082,-0.09052967389322414,0.015491048243768821,-0.037540952484804234,-0.17478505498637673,-0.8832516146843828,0.10784532601706366,-35.64615632135404,27.012743325113053,15.212535858244888,1015.7492905358241
258,8.930588803923943,-4.516482274253542,0.6486708453153316,-0.11826837845113132,0.02530998342125938,0.0948116436640046,0.09240290733638787,-0.9400903246358921,0.04261608607995562,-35.568852422789924,27.15386108186924,15.078375490238665,1015.7524625653077
259,8.98520588806188,-4.58224813638444,0.697033661114988,-0.06190835605652849,-0.026867934574355313,0.017168795247059748,0.21842350647196823,-0.8400881408916268,0.13572791461654127,-35.068360411262546,27.776134026711645,15.403371994681631,1015.7525515641363
260,8.894693829045009,-4.57219869931144,0.6609312670852944,-0.06368115606396023,-0.05043610994676101,-0.08669175919694815,0.0527167047170615,-0.9202121156179583,0.24558163009921302,-35.32073949523173,27.375447915957167,16.098891484223824,1015.7522869288
261,8.688782470182117,-4.663728576179455,0.5681745816570613,-0.05819759908844234,-0.0011372241969144423,0.054319198817649836,-0.13527648421538974,-1.0039857768124303,0.19507878185876332,-35.183469158456205,27.658365790858582,16.00414400254562,1015.7520937863436
262,8.905354835088389,-4.75144962814309,0.6439398088921912,-0.026791556150020886,-0.0301260351459607,0.07753368982285488,0.19239697502786168,-0.883496514276999,0.3112614894686969,-34.20488469522632,28.58876750372668,15.915963568480985,1015.749500074274
263,8.950976442899247,-4.809159712383142,0.5787119959247686,-0.08779392553305215,-0.04208256590216439,-0.06939191594308292,0.2343069663721805,-0.9194594114974122,0.267362782955772,-34.016536303935204,28.991868325569182,15.791355266194245,1015.7476070696318
264,8.534933656225993,-4.680505099390424,0.4985047343963773,-0.045611667379590104,-0.02287997878705412,-0.03424630714854648,-0.22944899447854442,-0.9145480413803232,0.2572504371257493,-34.18891846951833,28.786626494524988,15.82926803677728,1015.7469674559887
265,8.805076481840157,-4.837182660208635,0.4979638231281175,-0.045592261603979556,-0.006219154497109327,0.10612310764574401,0.06422189406698289,-0.979158472370433,0.24012270566677082,-33.87957638889467,29.25890232098459,15.650499877560623,1015.7472426219805
266,8.832504939051905,-4.862017095553798,0.5015725368231654,-0.02580430790172509,-0.04504739150692874,0.025649712386707352,0.13392464180757352,-0.8936368557191349,0.21716006814290156,-33.424146348488044,29.795119231185648,15.375577760053783,1015.7474434501702
267,8.854279098141777,-4.801592460977428,0.48485975844758333,-0.09603317223968705,-0.016825653268113645,-0.09273445818846114,0.12169060082249965,-0.9188517666630664,0.22177058980282613,-33.66389908277951,29.616923376076137,15.410880501803131,1015.7463945821394
268,8.55205579755151,-4.705921770259362,0.4402333237250547,-0.03790085153371655,0.007645175240543398,0.014677579263546195,-0.21197810406128043,-0.954712533375125,0.18129848781376617,-34.0236132558049,29.3456665249671,15.129560839472667,1015.7452373458153
269,8.837114622160348,-4.7531884997211105,0.5252030409779962,-0.04030986959912068,0.006157404239565826,0.08426607517666514,0.08625767427926745,-0.8763176879176211,0.19206766207164866,-33.60579715795127,29.87067898114244,14.57376728424089,1015.7434858296696
270,8.836953270185374,-4.749543350102444,0.5376561446292699,-0.006898359475501069,-0.03155987785409219,0.0009347611779074588,0.11279163473507384,-0.8177790561316011,0.2778283059857461,-33.237350961126616,30.282924854780976,14.802183616438578,1015.7414037817605
271,8.840916646492486,-4.710954226280316,0.5553690581110639,-0.04476398897517441,-0.03710602776785739,-0.09453561291220136,0.04217133996425511,-0.8822635465777412,0.29449761758612375,-33.578169610219454,30.119238596497574,14.443318609276918,1015.7353496400112
272,8.597470655547637,-4.604967289288162,0.49068424059408156,-0.03110388862618765,0.013286438913355542,0.008740069169223083,-0.22096535310045862,-0.8700053356181273,0.18700316266254113,-33.90958876581799,29.988590409114117,13.937123843385306,1015.7303540085945
273,8.776087924573405,-4.658618868249291,0.5461115767318967,-0.039177744554434436,0.01656861295777149,0.08917195700419403,-0.013826143930483314,-0.865499571579211,0.14766162556515505,-33.740998241222286,30.259669734302868,13.488382947878925,1015.7267079780372
274,8.87189602354908,-4.668280495704758,0.5653164280796715,-0.01679612102523206,-0.0019379169555825276,0.027944280373813052,0.14624717349385194,-0.7781819260885554,0.10584144243551774,-33.265864244342794,30.835864623940715,12.912664590367951,1015.7244384016346
275,8.905330334781546,-4.6418276184113205,0.562785176673375,-0.04485422829643534,-0.032154162298832986,-0.06740460896439976,0.15636521396918923,-0.7586409839446916,0.16565148412926972,-33.335707024003305,30.723746378716015,13.140853935228911,1015.7227819653956
276,8.674221659009332,-4.56416350668678,0.5657047635566481,-0.019851440033376175,-0.03390205424498362,-0.06744097833233205,-0.1452786620883621,-0.7957403169610439,0.24141946967671243,-33.59520975483594,30.468891815879207,13.087029817762303,1015.7206663814491
277,8.640148479652868,-4.5846951060529495,0.5285104115600149,-0.02275621956821006,0.005047432520506143,0.0424017247872156,-0.1634543138104971,-0.8518123970168904,0.19792073377000652,-33.63848769275141,30.582947426883567,12.817141156029207,1015.7169167803337
278,8.841651563381198,-4.589292511867917,0.6240269263633347,-0.042958518549841396,0.02177105949560602,0.08200197430392892,0.0722009878408442,-0.7753552029966455,0.21473752222470874,-33.27864700808034,30.982434813638324,12.236492686751454,1015.710470101994
279,8.86916733192924,-4.604649486585336,0.6443933638730008,-0.023051506661234688,-0.024247920213512523,0.021121142033845297,0.13147405694664605,-0.729663826744813,0.23513336839871257,-33.06393772042343,31.227294959547105,12.1364753420453,1015.698406789111
280,8.927853776900678,-4.576795134381829,0.6074672122255724,-0.05771573241548447,-0.03044271113964696,-0.055551825186723955,0.17822519243228327,-0.6934673620559821,0.251275031542544,-33.00050355925235,31.337355553800798,12.222992283694182,1015.682450339586
281,8.796929171381771,-4.562898660419732,0.5610621429312236,-0.04501457906372407,-0.018973920336355508,-0.09009374052327197,0.023764380357519183,-0.7816212870472964,0.2216917629920877,-33.22738942727579,31.060523538576877,12.120150380355765,1015.6706088958441
282,8.584734670638897,-4.44074429239326,0.5414760566482886,-0.04669234262385264,0.020656772562377444,-0.01927482839368516,-0.2316983654743102,-0.7404310842376607,0.15656415993085887,-33.54885382243196,30.81886204183009,11.926453547005151,1015.6617707635111
283,8.716957441224842,-4.539925483077601,0.5786535248576813,-0.021026399602856734,0.014455135968274382,0.07408203109338883,-0.07925921068579692,-0.7719125520469186,0.20489054968626616,-33.29518472405747,31.198098903767907,11.682909182660469,1015.6536712740119
284,8.87746051292344,-4.576555891712055,0.6495367172908539,-0.026943480350459285,-0.0088085851277085,0.07960374588497342,0.14990844004737086,-0.7064841836549128,0.28238818726974724,-32.76781757820483,31.61579020861254,11.555363737307063,1015.6466676703493
285,8.855919209077081,-4.629939891485552,0.7099260108272974,-0.012974148852116101,-0.051700071460118305,0.017422069376248968,0.1275153451550139,-0.7404909079748974,0.3606924364156138,-32.575243337940016,31.917718271993255,11.138966151208592,1015.6415561337217
286,8.896161136300432,-4.580028165119231,0.7028088576538211,-0.019591103077587064,-0.03521793884750275,-0.04157692108780368,0.15399676665714365,-0.711419045924879,0.35356061984084075,-32.72680330847876,32.248578424417616,10.431570067650068,1015.6414323660509
287,8.886950187912444,-4.511408436896134,0.7347455938162205,-0.03866380253117904,-0.037436080773763494,-0.09484154444023526,0.08539728087097802,-0.7574744573657944,0.3649251859299718,-32.96791004956294,32.1005874410495,9.629590518557867,1015.6413420349852
288,8.651007714954144,-4.405391887182099,0.7392843213259289,-0.035868196821720516,-0.010478925239233404,-0.05727400366486772,-0.16608394879594784,-0.7737685007515962,0.3391235035072842,-33.25276963781772,31.84233528182841,8.897148516412564,1015.6377927132222
289,8.687976662453885,-4.439150121519993,0.7102921008100288,-0.035685054788876396,0.00840304260840324,0.025282110101185917,-0.16209753739003452,-0.8146706360295272,0.26919014145681863,-33.29006517374409,31.987658061163025,8.109801267223839,1015.6352022627814
290,8.76458456569892,-4.500926229344789,0.8043164832683425,-0.03155852386186658,0.02775494634798405,0.09242501851300546,-0.009315831834543181,-0.7660149201079041,0.2186147695600978,-32.807386382219654,32.7113911963501,6.827408629313844,1015.6333116386187
291,8.923891286095667,-4.519291854308195,0.7971180566518814,-0.07889901796246498,0.014512931576992965,0.07358968951056202,0.190187211845302,-0.7026470498631541,0.11837468396716344,-32.40734048529084,32.67324031512186,6.665126878095754,1015.6308395367532
292,8.908931800835193,-4.545472073961353,0.7533242294053745,-0.06577903905886483,-0.019735706220757585,0.009710233782406874,0.18394048806984897,-0.7173810214595995,0.1640965943717156,-31.762600063125937,32.504347864347956,7.201495146920786,1015.6290352885632
293,8.950900279316024,-4.454806962319858,0.7034485676047848,-0.07398948803973766,-0.020640983816075695,-0.06636892127200061,0.18659940418883847,-0.681929518320998,0.1742292943131621,-31.65671227131327,32.38929622491255,6.804639478744082,1015.6327268952413
294,8.935117295291196,-4.374649799510666,0.6447664302610024,-0.05706427323122257,-0.002871196968871694,-0.09345317923170873,0.12436392839065778,-0.7213952944423668,0.16058649779214257,-32.04667871763817,32.16254487183689,6.1273624688709045,1015.6361219766571
295,8.732214544656921,-4.323692208719762,0.6740962114092504,-0.046601210253424966,0.006636042077395467,-0.0684231989826595,-0.12262730345642449,-0.7603815624938239,0.09525655571757377,-32.27854141165355,31.794049372186027,5.649849702071179,1015.6406403456069
296,8.666986626731111,-4.27898507232548,0.6188067396185626,-0.06071612423781937,0.022870587520167285,-0.006777688370024924,-0.17174651232671184,-0.7402229734372396,0.025352414859848307,-32.18833963441866,31.811294463303426,5.368569291769102,1015.6492971378923
297,8.76019430147726,-4.335288277793083,0.6086621680730154,-0.043814936644967814,0.0074857265558685646,0.05716949007832862,-0.07690739686244269,-0.7706155708977332,0.010810672409279971,-32.14270791769977,31.705302818986656,5.286706975306295,1015.6558007062064
298,8.760595400516832,-4.371805658626824,0.6550118801365531,-0.0437127278174452,0.02022161602298595,0.0991810785420504,-0.01886180689179022,-0.7218358507247585,0.03566775786670895,-31.826220850006504,32.17197533048948,5.250561247130474,1015.6607327573805
299,8.933373286185212,-4.452180874193198,0.7081458755621515,-0.04873331836835539,0.022652911268133614,0.07446456248196709,0.1859243039848925,-0.7071380010889663,0.04990418324711688,-31.43832548724966,32.59219378232784,5.052778168363625,1015.6689080200531
300,8.881567709238226,-4.472140590390645,0.7312355316459148,-0.03062500802904417,-0.02450160804077373,0.03276751309972185,0.15773808186873586,-0.6706235928704072,0.10789543374464988,-31.160483372632847,32.572320643915305,5.413755320172094,1015.674874684731
301,8.891723637923494,-4.438376586366856,0.7561582567374703,-0.06536092804949008,-0.030243957136659227,-0.019883074872836595,0.17884098186506156,-0.6449788160030056,0.05111578298215085,-31.027654838645642,32.85929625775455,5.243371193210368,1015.6770446645966
302,8.962069226030287,-4.372510324424827,0.7115850381238001,-0.09657396025551833,-0.07544843353668898,-0.08698803663371005,0.18064228034637694,-0.6712468637425668,0.18727659030459068,-31.309252961363573,32.398655761912806,6.377307971871029,1015.6718266879756
303,8.844644996748135,-4.312562778824329,0.6969320363574517,-0.039039740240539536,-0.019914686448673904,-0.08843561946610405,-0.00968192072973359,-0.7454324006445238,0.26380726204375315,-31.574663319517096,31.890966149438942,6.2635569655326835,1015.662721427306
304,8.678836559265811,-4.286585141571743,0.6610956889721887,-0.10836813842688922,0.053292405632450135,-0.02155078051423047,-0.11673139497918168,-0.7393516395278283,-0.0449732307144492,-31.56188912505525,31.76673014504672,5.204527675439174,1015.6516857007679
305,8.785588751629142,-4.361494885140398,0.6401489436960013,-0.11449957502652164,0.027271621121814995,0.06782136100718383,-0.0012986284735237164,-0.7606470503828826,-0.06216031295869143,-31.37065233897621,31.46118664023073,5.814863983609584,1015.6436313443065
306,8.958824005974467,-4.413766055875389,0.6851743341186783,-0.11020368998155845,0.003235035812582103,0.08152136230523917,0.2286250638300892,-0.6779123012254953,0.0862019424086182,-31.135681939330354,31.71428580604995,6.452782131246758,1015.6402675362959
307,8.879287478739128,-4.601272052941922,0.7052998705946182,-0.048089890572327904,-0.030060993690653674,0.019003837344484187,0.18418933171650095,-0.7522291180577617,0.24078413139946503,-30.797751905519625,32.18090116603991,6.552644995188489,1015.6422851881588
308,8.91896061179842,-4.61396125731339,0.6502531568026382,-0.10904869139896844,-0.018579085180959,-0.07301271811669888,0.22014104244619842,-0.7311856518682729,0.21172878017365343,-30.83810756593798,32.549497922922974,6.379474589637989,1015.6487867167214
309,8.66907362709609,-4.5988601196513335,0.5942302870164767,-0.07757235587214284,0.004866649758474374,-0.0780743364094713,-0.07730401423667577,-0.7903919720265916,0.14552870349580949,-31.300079343703626,32.416448315473644,6.236923755303631,1015.6572832061142
310,8.617892998761796,-4.597750821447368,0.5436117824683084,-0.08560517589487092,0.02745311259874059,0.029572400039637375,-0.12072703601868517,-0.8197580158741286,0.09747901458342001,-31.662724361359537,32.57997987796334,6.520230068007094,1015.6637728429528
311,8.835562047819819,-4.725316201886903,0.6651588902206069,-0.06966601337317588,0.049646868346080786,0.10456383131320458,0.1670672248573395,-0.8125332055367022,0.11760137278926,-31.262248555195416,33.11251691654753,5.7995626592801734,1015.6685092640865
312,8.837931066865709,-4.77104350945428,0.6994646331203714,-0.09524822414432117,-0.033173259373305314,-0.005590720881133743,0.2261147179231678,-0.7543563286962949,0.10329339078993825,-30.90480181773494,33.51336474192994,5.653701129217869,1015.6719455797569
313,8.831662749716696,-4.77318197218807,0.6823964412670883,-0.07665177985156696,-0.024958667009773818,-0.09986290870865336,0.1598793066883063,-0.8621796929958259,0.2154695280933015,-31.321026146289316,33.20580378441595,5.9519577867624855,1015.6729077195587
314,8.50137006769561,-4.642436510009553,0.67283051808513,-0.07493920815647044,0.0388783091173213,-0.011694672454032828,-0.2249514578084606,-0.8739100162552308,0.11863978510526156,-31.895509006371018,32.731408556327395,5.634986497845928,1015.6713735781944
315,8.752399748469577,-4.782790261365265,0.7358598963402146,-0.08064446417598922,0.0417779125974759,0.09872695177578482,0.08558823758511058,-0.9112979119761324,0.08837920927643733,-31.568289639756408,33.11725105272939,5.125826152582433,1015.6680175415278
316,8.823139920723156,-4.8492746874160915,0.8132158753751509,-0.06614663759605913,-0.03544778396454773,0.0323863167481771,0.20107475177867087,-0.8530476721588682,0.21697416417784635,-31.093938887981025,33.47626452656822,5.297902077791663,1015.6655681590139
317,8.858610413968254,-4.840221719956582,0.7956072487834802,-0.08138071915748106,-0.020345655160993015,-0.0900016644293948,0.19094274927478025,-0.8942683042379523,0.2814593333807764,-31.254881359519803,33.4203314589143,5.313955613105379,1015.6670164235071
318,8.51678868413372,-4.708809267495103,0.7503611916985145,-0.06770808823661165,0.01861034590695501,-0.04449655352271521,-0.20070581817984093,-0.9135256207589475,0.20294374533721898,-31.817714640837973,32.92111953123359,5.004286354922333,1015.6700520544468
319,8.702206164951326,-4.816970669275315,0.779384079580655,-0.05884280723454352,0.039668410639980375,0.09388620975230443,-0.014153671586311756,-0.9671221541505978,0.16719887710667844,-31.754069361336445,33.0469410908966,4.722888952978548,1015.6722675908312
320,8.84621428735272,-4.885631916832823,0.839259421124457,-0.06784026390913403,0.0009952631005967702,0.0441760902242499,0.21392329318705097,-0.8976373155062638,0.14294642533983387,-31.118544212020584,33.56091175741055,4.301981914690661,1015.673142737341
321,8.859711171095915,-4.918639013510925,0.7982613958297977,-0.092682483292488,0.0009918078592725194,-0.067196105711558,0.21797675637738423,-0.9359544357755621,0.15436810483085553,-31.070256619083317,33.563027658572885,4.483360190104326,1015.6731217361154
322,8.536219644833176,-4.778341369775958,0.7829789956334628,-0.072447387173836,-0.0027316394731341956,-0.0785627507516882,-0.15148923626023814,-0.9482326292532385,0.19936345566395175,-31.189771772396504,32.96172759946576,4.482368649617144,1015.6731064085013
323,8.587634541044297,-4.801481033334473,0.740408718080994,-0.07893019890893666,0.024325589037481717,0.061464366468421266,-0.12324357683291201,-0.9930176812295051,0.11682828667943873,-31.308247507830668,32.844164818359786,4.558593854809096,1015.6748677166436
324,8.823799091604164,-4.833641122418526,0.8017413504878078,-0.0654425645976019,0.021252412257936986,0.08586748520204986,0.166333835786765,-0.8804096509927881,0.15276116120374467,-30.84253585665664,33.36451073958618,4.573570397137697,1015.6767715840191
325,8.839400783188328,-4.85011267644886,0.7952048491034684,-0.09912998222991315,-0.0034906699903078445,-0.03438478553446961,0.2064075450525449,-0.868953517543616,0.062349454008348335,-30.883394114698934,33.55582516652262,4.3515332073678055,1015.6825924821399
326,8.71764030008236,-4.781990230991245,0.8153849625272643,-0.08960326546910909,-0.008356580875563478,-0.09561959843592915,0.026326819895596293,-0.9485180078689901,0.09858837176552676,-31.57716481083724,32.97775941333607,4.954295509772685,1015.6902623568981
327,8.55938587825953,-4.731012016075301,0.7579916847074846,-0.10684162930600659,0.03148369924313989,0.014865455576279357,-0.1894702279605634,-0.9650321997435836,-0.0001455999974702138,-31.896163114659362,32.602443956461386,5.242637178337583,1015.695860167346
328,8.78665759493308,-4.804672753377002,0.8352491694092357,-0.10571220913556885,0.036486214662263504,0.09543093549673827,0.12157473615954018,-0.9164718507229231,0.0711829405296743,-31.707126205624657,33.018574156339554,5.66940301450543,1015.6999456945287
329,8.816335275682547,-4.85227635481186,0.8622315112274098,-0.08798063350140695,-0.009833408505486613,0.006095126376396531,0.17315328815360068,-0.8846652956933538,0.08373554212055019,-31.293348168649345,33.081537418223505,5.719112994355336,1015.7029893569365
330,8.850268209955985,-4.829572169740314,0.7965109739745304,-0.10794363132172641,-0.007166251612361146,-0.09713630647917361,0.17001372775264473,-0.9286005219510507,0.09107245799061191,-31.68864592868209,32.794189185474586,6.50688518886759,1015.7060867365551
331,8.5034522436953,-4.674382890606533,0.7490070653509071,-0.09222119273976755,0.028614071021425047,-0.03854988865809404,-0.2487050572684676,-0.9189542235285558,0.06953206721127517,-32.20217545882835,32.1256333081926,7.308328659729314,1015.7092233213463
332,8.716924379522965,-4.777376231263588,0.7613839009804132,-0.09663828823887054,0.04089202886887963,0.08980951808429315,-0.01018054670052615,-0.9743443368702553,0.10037843225312901,-32.346918109414325,32.19153933137505,7.788340684151808,1015.7119661305517
333,8.852306569745618,-4.816028733622572,0.8066376208814785,-0.07251509801540443,-0.01504701604649799,0.04501197133473643,0.19938428928608898,-0.8784444571893945,0.19402663805669607,-31.97183671399798,32.64331743851333,8.232784012026602,1015.7158847111355
334,8.86802694823916,-4.835249357574197,0.7652897372754965,-0.1045727852875078,0.010401541978016033,-0.06974635919195409,0.20107302947912906,-0.9151273235046276,0.14281136119955806,-32.13832323802144,32.59120658381823,8.22291539968537,1015.7187446628328
335,8.555637698156572,-4.659821555428488,0.7524311409414568,-0.0889764347777055,0.0013323154168643405,-0.07009541318473536,-0.18069715623266977,-0.9211303422296511,0.18841361140639123,-32.91431994872222,31.8425879997867,9.05420063320771,1015.7210999757757
336,8.649098874639378,-4.777065789537303,0.7375066448943627,-0.08428906625029425,0.03421656993720012,0.09407198194262653,-0.07565950192056635,-0.9973229723392264,0.1472449772911924,-33.05786850564276,31.799774064141964,9.144988670028791,1015.7223243302723
337,8.857436933970162,-4.810836668846487,0.79814685810509,-0.07666656552973944,-0.019611389382497145,0.04684908919559337,0.18315510117051303,-0.895004720297421,0.20375996755193906,-32.566619137639904,32.191778172062,9.324364309031022,1015.7226405939713
338,8.922247693933208,-4.811063976957097,0.771131597653817,-0.1030887362941667,-0.03692092191675621,-0.08604685967589966,0.20484731336613884,-0.957153025951238,0.3123585140040665,-32.98742110902496,32.20238222702019,9.556154886979366,1015.719037900421
339,8.548850097466424,-4.629976720698505,0.7112284901288494,-0.046837031619340906,-0.008443260333987356,-0.05186990787493057,-0.253228063450345,-0.9793669484105432,0.4420409569964974,-33.40224049236609,31.290688111537857,9.870257385766056,1015.7132549634515
340,8.820078830928972,-4.753167127363103,0.7033923383423447,-0.041448665507560704,0.013670139371532504,0.10082007352739689,0.05318978208991981,-1.063136734707141,0.41943321093859354,-33.19110364746097,31.533172578872257,9.399908693244374,1015.7063135796175
341,8.89786139553412,-4.779396246484384,0.7252128522569575,-0.017651388901783735,-0.04468436628469971,0.025667264280672397,0.19091131441402306,-0.9598828384944049,0.5093622306795339,-32.530830840122945,32.14315840299526,9.062201077628876,1015.7012474537452
342,8.927162501294163,-4.778640825575939,0.7071904035503908,-0.045438833191459915,-0.05577633261491585,-0.10010705823723168,0.15229534022161612,-1.0437985887921848,0.5847968027317516,-32.65951784955614,32.10435471328519,8.698286490242136,1015.6978179682096
343,8.559892392555858,-4.608966450957274,0.6856126511867563,-0.013693127644200907,-0.011100142810147401,-0.0037464370538925346,-0.2685697158439101,-1.0206802161675863,0.6922888421916277,-32.91220475504247,31.648633694109066,8.343129909247622,1015.6976026622971
344,8.876898846535628,-4.717211276600148,0.723084714765941,0.011633662254253514,-0.010301632303343411,0.09868380097249395,0.12042711272819262,-1.0048681946445663,0.7337050929364285,-32.32801919065581,32.23570596652359,6.924276211335473,1015.6978372491216
345,9.005068652287658,-4.756217744673528,0.7420951298868651,-0.002388636604789298,-0.044850383975084236,-0.03177195963182729,0.247395759149499,-0.9760157158570428,0.744882632871303,-32.08304730501034,32.593712739171224,5.3333345167690815,1015.6980084608582
346,8.729325266391005,-4.64887169776026,0.7127236817503239,0.010025818640249273,-0.04069861204820561,-0.08511778856819163,-0.07461644624361921,-1.0688903798344311,0.7971935523226945,-32.912338707812495,32.02514072879496,4.051264423045863,1015.6941553684608
347,8.742160714425435,-4.742820077022994,0.654184020411477,0.0284463082573471,0.018115651075940216,0.097609360070571,-0.06334396508791652,-1.1522505973394632,0.6338214217472372,-32.821678543056336,31.640911873876178,1.9315187455689165,1015.6887668681949
348,8.975257303807032,-4.780503862849295,0.6740126987419383,-0.0022938262639193886,-0.013036168905707374,0.029753249008555527,0.23034589495281937,-1.0256380093168744,0.4621771525890161,-31.958985017447297,32.068043018948536,0.027783733765979646,1015.682257760034
349,8.982985410353812,-4.754595195532224,0.6502763400271463,-0.058546091375412515,-0.01469125320947074,-0.09890485247906664,0.1947818533955569,-1.0839895525641952,0.4091728159234326,-32.25376432525237,31.86260327962782,-0.9237960737384813,1015.6725192337367
350,8.585172962255161,-4.568322054888533,0.6155336657402317,-0.046703621664213636,0.027285730547824988,-0.013185685564558264,-0.2518928777980206,-1.0608734796535877,0.2902818558188676,-32.74387834132003,31.3197080201584,-1.9909232082280854,1015.6601349396828
351,8.898682644455993,-4.711255721923532,0.6550511060319955,-0.056224147193750525,0.03283004729325126,0.10240277887615867,0.11613749989338912,-1.088886052778112,0.19278585794648528,-32.28559577030964,31.627859649459474,-3.0857051902625106,1015.6459436501683
352,8.928944330878496,-4.7326260709527945,0.6915504952344261,-0.04143584920175089,-0.013334156773778472,0.012474199247182988,0.189959988112359,-1.004849635001275,0.13891738934977238,-31.495501851017963,31.685797408224932,-3.6310665262468986,1015.6321646972472
353,8.920195639756077,-4.683603452102967,0.5903792031922742,-0.09036669070130554,-0.017933900168857722,-0.09612050464204215,0.11289631652802909,-1.0372506461145274,0.09084649548113863,-32.01699254847826,31.51419716382725,-3.511188516745664,1015.6185218903382
354,8.701610397273084,-4.486409633643149,0.44720384918706146,-0.0789513884816151,0.014355578369814943,-0.06201680901577053,-0.14400878601116215,-1.0329192006216534,0.03781748653315281,-32.72462080015002,30.996538249624912,-3.0871060434702984,1015.6010209304028
355,8.766479546244756,-4.450879855126625,0.37587376018079643,-0.06549118552007432,0.03145759234121748,0.07200801699046494,-0.1035342917816147,-1.049785687737659,0.042460618242951026,-32.75230426440338,30.85426014421416,-2.7203827634853743,1015.5833838009129
356,8.968909957206584,-4.441206866628042,0.3775065310710405,-0.07266136220168275,0.03411560091365021,0.09760970550812158,0.12680373259477234,-0.9520163992208008,0.048984095209254716,-32.19500553688163,30.940332480316496,-2.6889923364535386,1015.5703671880971
357,8.974367137463664,-4.479528152590182,0.45085605969381265,-0.06305417724701977,0.0018431904219753381,0.039258147900324336,0.1738308289477009,-0.9256345076042787,0.040852744341775035,-31.834280284229475,31.28517044346437,-2.9905639292205435,1015.560867094091
358,8.987760260692818,-4.430247864576149,0.5126207803358283,-0.10374807652738421,-0.008908178692490862,-0.039849828288256395,0.19355351199390491,-0.8345436175545073,0.013785034413265587,-31.75781175441125,31.562670076572015,-3.4301551966311736,1015.5577878281688
359,8.929234121908943,-4.4488819877195915,0.5309282985471608,-0.10477546336872527,-0.002057164891624391,-0.09437959609637751,0.11752743782555079,-0.9001118688276899,0.016515404752218334,-32.05292509282189,31.585050978140327,-2.9748642711024744,1015.5601574147244
360,8.694032581946447,-4.350478929142826,0.57815244871986,-0.08620857037335464,0.03182122051126866,-0.04936994566637185,-0.1382283276070262,-0.86715559346768,-0.0012676020581723207,-32.10825237741414,31.464361337331262,-2.852297276481782,1015.5689770925329
361,8.783735682870955,-4.365653980257908,0.6005556469411819,-0.10206654525200551,0.023552885715151906,0.059181596261357446,-0.06043787187428369,-0.8678853598276861,-0.020545726037772858,-32.248659868724175,31.72003490055716,-2.6603102963796643,1015.5760324671638
362,8.982756274931363,-4.404036448391147,0.7104598291499132,-0.10782544561955802,0.032481374119368765,0.09128309913124505,0.19872539873021972,-0.7739584671312457,0.04021693334374961,-31.908986114022966,32.19621897579674,-2.4474228005769674,1015.5811817885111
363,8.974206047551595,-4.496597323521256,0.7692202795085068,-0.09242892978927394,-0.019767418982694948,0.002124706099051535,0.241664519651531,-0.7748686048685726,0.07754130941582313,-31.648226767095043,32.580964283979945,-2.338283361431311,1015.5835486842184
364,8.998856502574242,-4.491184529626583,0.777149751999494,-0.10470471961572779,0.004170166009562493,-0.09073087422654318,0.21861422111240564,-0.8403534415004869,0.07169588949513132,-31.824738748834125,32.369191158894104,-2.143633789338176,1015.5838848438564
365,8.69210829488441,-4.352422065566492,0.7935433625925666,-0.08558920761630631,-0.004829537547841075,-0.06475119797361839,-0.13388722634644934,-0.8611082649490134,0.1180219729342853,-32.46490695062769,31.93284189631461,-1.6400405150406274,1015.58413018788
366,8.77100176902577,-4.384199034640915,0.7697961582859028,-0.10858485384376047,0.018633765758901993,0.05721394430273544,-0.07727642523898318,-0.8893429640459016,0.03759736243659982,-32.60239007084639,31.926402522972275,-1.628097330802743,1015.5847009771987
367,8.961564619476873,-4.4123761756308895,0.8925002372909944,-0.0812679427355325,0.011851717420292143,0.0947004236368662,0.16431601603202411,-0.7970531016866114,0.1989966448872016,-32.09268241128653,32.31888756351281,-1.2387109187517709,1015.5879207050917
368,8.938363684708648,-4.491802604631913,0.9085411203870196,-0.06988421180227224,-0.03146207427554698,0.014478621358795324,0.17809469830048807,-0.8039836138629907,0.2123054326873321,-31.708163939668907,32.6085952868183,-1.0918847162159524,1015.5955056905675
369,9.001425298232048,-4.500552772494318,0.8810878133864342,-0.1100743420253651,-0.013081111698420075,-0.09824541915361228,0.20941131111716688,-0.8711693912128604,0.15005120866062846,-31.845898833764462,32.33866356120995,-1.121745406201422,1015.6063182362303
370,8.673152303951587,-4.36106006422161,0.8394933257366853,-0.07042822689959385,-0.004608252092947473,-0.06594200040037623,-0.16711582288172644,-0.880722689939886,0.19681374396715326,-32.24355386351335,31.88323697542175,-0.6268810807828828,1015.6195479922628
371,8.758081594668834,-4.444588612175792,0.806848249483585,-0.06732460389814846,0.020663724294054362,0.060662160312071334,-0.09068253732737556,-0.947699714023555,0.12434613634786981,-32.32504355474628,32.02311245939528,-0.8065631187970272,1015.6292036475215
372,8.891201122417307,-4.470808351384022,0.8328186350746689,-0.07605479679531843,0.0317661138202786,0.08926233856947124,0.10185950890971897,-0.8662563530371686,0.1384928475249035,-32.02515839309156,32.321459596897235,-0.6614567143697844,1015.6313658029094
373,8.919469995782821,-4.494245047786818,0.8269460767080135,-0.06886169436982913,-0.009492462518253059,0.02984085228347503,0.13299831217860753,-0.8278935944542031,0.19176522353556885,-31.554042703617117,32.264507215892664,-0.22322617561095187,1015.6329438385882
374,8.961355948566167,-4.515471688924595,0.7741881833946541,-0.06612758709957015,0.010118114014710168,-0.04827449456244166,0.16424835286671124,-0.8622174630072704,0.18658962406443436,-31.536628180070423,32.21498012165164,0.02571131692093495,1015.6356000580697
375,8.936511127488721,-4.46726644053945,0.7489331354980236,-0.07347153546850266,-0.0005856475253093619,-0.09053262927422648,0.1144932431851329,-0.8852235984287286,0.14460480208896925,-31.791395618542207,32.12333911081018,0.14819404547400344,1015.6385898611786
376,8.82246203185579,-4.351037807218381,0.7290228140821075,-0.05985320500817719,-0.0372047559064201,-0.09018403888817779,-0.03326085634860296,-0.8889159649506257,0.30105564274011765,-32.330557094765076,31.91245949880441,1.2130373075394048,1015.6413698061023
377,8.755439373472356,-4.349997751399537,0.6771230152401189,-0.010376323178876164,0.020447190936357593,-0.04100520842697066,-0.06640917854876394,-0.7437910205723035,0.315737442006092,-31.347118115259168,32.335105260094366,0.6783287876170269,1015.6496852666863
378,8.939993586539648,-3.6112782307089493,0.47652837930117287,-0.05122735100965027,0.018099570947802346,-0.015463878044684718,-0.09492028285205527,-0.45826726540140966,0.11489261415305266,-33.65595353215726,31.402313714807082,0.14279894244711255,1015.6618551916717
379,9.092570561202496,-3.1038319618071335,0.29374814653723236,-0.05777239118573971,0.009406773209295094,-0.008479425485944547,-0.08788618896401752,-0.2446817595196489,-0.041460866844355015,-35.25865970819192,30.401904265163378,1.0850675356851913,1015.6778275856049
380,9.232280746667879,-2.735861375559225,0.15001730463237686,-0.03949350346773699,-0.009025054013903641,-0.010299976641482838,-0.06934341348406692,-0.11568856488402157,-0.039291832167305925,-36.01814371534036,29.498641947401115,3.372181746296693,1015.6930403289249
381,9.322841878727923,-2.4500375527679257,0.08319569908746766,-0.017303193264168144,-0.015583172032334789,-0.010083441132955217,-0.06107120663462871,-0.030068983671465627,0.10056529187427929,-36.585898757956905,28.972740814644723,4.5254383530461695,1015.7076986459638
382,9.39430767063629,-2.258019868048266,-0.013360958639299148,-0.014778045678836747,0.0013054665827834742,-0.011602583956844666,-0.04804778311718825,0.005448951847769855,0.09600309480245567,-36.606305725846504,28.36076999979243,4.954756064359399,1015.7299598836233
383,9.452256686959323,-2.0962639037797,-0.0724093912565203,-0.014272767818343808,0.009533313235244216,-0.014164581328279796,-0.058414127278934136,-0.024896686592176347,0.058573527911248306,-35.26232052773463,27.170674843826223,7.191595194421534,1015.7547402637533
384,9.556794597568496,-2.6041555366431295,0.01635710305644257,-0.011703180734855373,0.022167012547655615,0.02145533899633187,0.1894020547189719,-0.23660438266060443,-0.024035167832288963,-33.68786933415165,26.317964448324137,8.086365451543944,1015.7786176791287
385,9.056129970015213,-2.9736344240193393,0.20478686146450115,0.0008245939604809068,-0.026268286731506628,0.0009415905708173716,-0.20546321483591753,-0.45571936823076215,0.03667412984798768,-33.470215622736795,27.303898209589672,6.802787088583439,1015.7960444624171
386,9.257546275913365,-3.3903592908836377,0.2125977400854152,-0.01893303041907734,-0.0028137937124316885,-0.043989761724383375,0.07977395036536264,-0.5988930699301442,0.1596780827613315,-31.68949621683838,27.66887542204256,5.9745035658369385,1015.8084955671412
387,8.958381058301573,-3.6110999558053165,0.24546013722795085,-0.03498610091653748,0.04691088899062587,0.06337845419317054,-0.18736857418593686,-0.717247140784417,0.06474542301718418,-31.8158044933894,28.573481787616284,4.256962093428491,1015.8163048195411
388,9.274841762714452,-3.88966140650231,0.47228988934125654,-0.05438479244543998,0.02412065205041157,0.09828385335260037,0.2606295925194416,-0.7312128079359933,0.11206453108693103,-31.143648441625388,30.27517798070824,2.4909958590433274,1015.8203142566335
389,9.24242858330167,-4.039099825374475,0.6174833770144492,-0.05223878761837671,-0.04826614434859777,-0.005944262550634821,0.2522832258443486,-0.7861513109944059,0.2711405254938694,-31.382118827766227,30.585370521496916,2.7960424199445457,1015.8204992443075
390,9.03870320328585,-4.095438784689803,0.6712597592589749,-0.08432148891997063,-0.013405915671443357,-0.06892190133635918,0.009761763895198311,-0.9148230390730243,0.3004371939392493,-31.535964294035043,29.962434578774687,2.8209882772836563,1015.820345729578
391,8.92824765887704,-4.027186000113703,0.5444561091159004,-0.0884011040032009,0.021453126446825226,0.021841811452408294,-0.09196838855032559,-0.9389264537544222,0.24182949675212856,-31.863347049612077,30.16075351193901,2.966343384476324,1015.8169564228
392,9.065230939681413,-4.1000524565730245,0.5962977337206844,-0.09006938286667178,0.044453465942329205,0.10234990382437417,0.060094895231114845,-0.9297154849740185,0.22436149233983194,-31.86093201614097,30.466452223825918,2.2977955533324135,1015.8067949229809
393,9.202594962871954,-4.08969417374828,0.6517139847429546,-0.09804189366447091,-0.008061780865259875,0.052276799901910385,0.26519951213364706,-0.8071049794092028,0.21999919833196493,-31.821993759924386,30.45008855756378,1.876713438180965,1015.7875681963454
394,9.08935781446626,-4.180031237327134,0.7581435512395166,-0.06626675086188123,-0.054124726275471,0.011622902063585655,0.15159061589513884,-0.8319746520697063,0.3632083940257697,-31.472833415109598,30.238832658760995,1.9306219531927598,1015.765827051995
395,9.143673983528272,-4.136522376723444,0.7717028291526717,-0.0643476317283883,-0.0945405154541234,-0.04093709336835654,0.17966680597753004,-0.83421439101694,0.5829870075907726,-31.008303235590187,30.55926571777725,2.458689212224753,1015.7376340759897
396,9.033059898648277,-4.164718214484704,0.7754376463913791,0.019752987399123623,-0.0472247567669813,-0.04327638768074104,0.09763920048502309,-0.8468953112783554,0.7887115937360922,-31.90078724258731,30.62583147839576,1.5420139102411248,1015.705741844493
397,8.997025243030084,-4.168729012740061,0.777115434652974,-0.03884668360526322,-0.019121517364786986,-0.050552673216156696,0.1173011266143121,-0.7175736444424224,0.5913053702379444,-32.054351968122646,30.634895757078155,-0.9622699639885914,1015.6793635638209
398,8.843819287819278,-4.133965759482898,0.7442979807404086,-0.04503477963381769,-0.01963479495581978,-0.07031815810452426,-0.030943604184839074,-0.6826897438328932,0.45345652555420746,-32.227496597152836,30.542934009588638,-2.7880396770239413,1015.6570096059061
399,8.700896125696922,-4.042985233503861,0.674950782889621,-0.07114368608357041,0.04622196116121151,-0.00383623926724265,-0.204709356679628,-0.6529433418296581,0.1629551203143788,-32.61114048937688,30.304487033741555,-4.451722455621929,1015.6406947085818
400,8.862091679943081,-4.112038569688016,0.6839089057119409,-0.0905541310914052,0.08268685993199151,0.09034018177288974,-0.005123994701747514,-0.6712572886270306,-0.09242301465734387,-32.428978614700384,30.75034597548768,-5.195560736810316,1015.6287873821158
401,9.085537220098903,-4.194759769813806,0.7191908525256138,-0.147722946594733,0.04431395061429531,0.05753910252695908,0.3407621321926239,-0.6170794462720275,-0.34149961795029704,-31.644176812861648,31.587331057983327,-4.978750754055172,1015.6218075229949
402,9.074496285647944,-4.249191976363418,0.74131617999892,-0.12469624056665492,-0.012938121642415236,-0.03012279285468042,0.30102589113216904,-0.6369527486931905,-0.186417669474588,-31.955982238387936,31.973948983691116,-2.986379487149315,1015.6211446885169
403,9.033020026843511,-4.210982674931389,0.6906848313873916,-0.134494437062658,-0.009998501982597543,-0.09124740527220149,0.18380696639111177,-0.7324957984900277,-0.1149101347455549,-32.61058405472927,31.744999815661217,-1.3820543905421054,1015.6238557902522
404,8.826465517199178,-4.086033355141026,0.6235498374462486,-0.11877174212059424,0.01584315294866935,-0.04505181740289305,-0.0873871200842729,-0.7341744232363485,-0.07517019954450363,-33.25357826920018,31.424597219120745,0.1556440228091931,1015.6312346235317
405,8.912997069869473,-4.166906239257377,0.6654800265311481,-0.09357219654633281,0.026100764863526818,0.0711385140876486,-0.006784631930181834,-0.8090083439918664,0.04669827482888629,-33.355173694088045,31.62049057214941,0.9728554885397102,1015.6435454736556
406,9.076544874562387,-4.222634783312759,0.6925849241792911,-0.09281080258028203,0.018870226415665336,0.08127184588378182,0.21419932073886896,-0.7426912972522025,0.08563504689024293,-32.96193533595594,32.014219773958935,1.5538351395104253,1015.6565290532371
407,9.08572577783719,-4.295893124587138,0.6250433682211309,-0.09642777589363881,-0.015033301320806328,-0.011016697850121077,0.24491712317816242,-0.7656505238222748,0.08117709712646189,-32.724407888610294,32.20269674277009,2.0544525656450863,1015.6698593568171
408,9.072793374170756,-4.244651723465756,0.5787857835762374,-0.09326597984086928,-0.016299964557342672,-0.09222777006363275,0.18495510616126895,-0.801762473878236,0.206161395784285,-33.03039131162589,32.03958212326467,3.164059584278392,1015.680845703089
409,8.768281563202251,-4.117431852509476,0.4642083677004487,-0.0616326192076727,0.034569125999126545,-0.04953813194419781,-0.17554784192614756,-0.8131785693092569,0.07305974694109771,-33.468521946717296,31.684107039702646,3.0465739559021907,1015.6888640196696
410,8.896071946766522,-4.151056866328691,0.506096325022996,-0.04985084324892815,0.03093907793791881,0.06988191000027791,-0.04215075093852616,-0.8465966645975342,0.11479254680810344,-33.563168529388776,31.69642356381738,3.1173584171070905,1015.6931289704726
411,9.09765389085551,-4.0812139502210405,0.5833104213149554,-0.049403953974412405,0.014630067392162348,0.06503606441345364,0.17143156002662793,-0.7290241813700348,0.14923730314035943,-33.40559665927491,31.776367539709707,3.1026757583315203,1015.6955409331092
412,9.15000219307384,-4.051602951954112,0.624818861497157,-0.06239612338786535,-0.019889172322506928,-0.03812897065149709,0.21044637996854135,-0.7384800674312367,0.14689343285060713,-33.58498000662351,31.772236781756632,2.8632247907655723,1015.6937149653442
413,9.0925449472298,-3.9268145907808947,0.6379733967685274,-0.09319164751205944,-0.03235053634524773,-0.09519447620804054,0.09617215335088271,-0.799986403095589,0.1290853847772534,-34.20238914278816,31.175699416682686,2.936711765875625,1015.6923822941135
414,8.921226121502865,-3.8230285283916157,0.6180731799841955,-0.061619194145807396,0.009451623950931208,0.006307973599427905,-0.1533990025548369,-0.8432084125946893,0.2567407692156542,-34.74415847554415,30.527077638719593,3.617010079977021,1015.6914096522942
415,9.108432781602744,-3.881992437372311,0.6293065621635342,-0.06781230851490389,0.018027986311541844,0.09964627047120078,0.07978856128026413,-0.8354530710683756,0.18791469389588644,-34.45671748684045,30.726886019908207,3.1001322000999423,1015.6909264367661
416,9.210236741543536,-3.910778008043207,0.6625991017004935,-0.04645755756626539,-0.01130527124355581,0.03515172489064887,0.20513236902774132,-0.781479867804875,0.18750045970094117,-33.988073886596894,30.919631725372472,2.7552774664403086,1015.6910478890663
417,9.26534247603468,-3.8651814380951297,0.6349995277080626,-0.11839772102812166,-0.04543964911628437,-0.07296940032305699,0.237410859207474,-0.7672467266808934,0.14541136054586185,-34.051361160480155,30.93636940758352,2.902028302578662,1015.6913426594629
418,8.97038849989196,-3.7852150405905616,0.5723608764061457,-0.05620211495902316,-0.004760396459737963,-0.05653229903924994,-0.12033434740805293,-0.832198265064212,0.27158141020788384,-34.575668397141456,30.366255337059428,3.8537185266158467,1015.6927737689153
419,9.022795933864414,-3.8795605006881817,0.5591622882341207,-0.04769085538782677,0.022752188099251534,0.07890605253446217,-0.042258991588313644,-0.9056992269512523,0.21562816723577777,-34.523284268083884,30.532511328341826,3.627990853563804,1015.6956731478101
420,9.1910138911185,-3.9788455213483935,0.6142705718766535,-0.0513866660414416,0.02992337625271873,0.07165853546661613,0.21597299246364282,-0.8124731098189797,0.19467641895904061,-33.82822038183756,31.243021178299912,3.150051128248267,1015.6977892414859
421,9.219213669391273,-4.039450454296918,0.6420704721930177,-0.0824046075153462,-0.013936073956744628,-0.03390123716416442,0.2588134060549041,-0.8020912733552745,0.17732327186280475,-33.64602009682075,31.54175295186894,3.010886007902618,1015.6968603791905
422,9.044660882277169,-4.02944831393296,0.6166651116550473,-0.0804377740621038,-0.015836555921478153,-0.08754015747499934,0.050931955864967654,-0.9102538207458233,0.21193171529632404,-34.12209608329922,31.10041817150453,3.4471398724742452,1015.6919158777602
423,8.866847132306276,-4.010212508584436,0.5440858086421863,-0.08253800579816217,0.022670533030735157,0.02947585152467315,-0.1420307840987959,-0.9486212137221185,0.10268911521306356,-34.37806778109763,30.923141330721744,3.3304530373531946,1015.6861429426925
424,9.093474585477876,-4.113802544094215,0.6199826258166199,-0.07410818060214937,0.03638782485767119,0.10801763673781477,0.11965399914742667,-0.8811895699361506,0.16477828004562148,-33.860333368967275,31.437641130265472,3.417617947089922,1015.6814762797707
425,9.153964943053117,-4.149637393999633,0.6981651065212617,-0.063869315166107,-0.031302269661044206,0.016990065541345023,0.2286378899537391,-0.8085074680804498,0.202000885486531,-33.467258522266654,31.79814125841063,3.3279910606631273,1015.675329069744
426,9.17712543846866,-4.097018641811523,0.686455775401326,-0.08876119346033622,-0.026604861460649075,-0.08661510221415823,0.19604019840873174,-0.8438153756872767,0.26050088062496646,-33.83385543515246,31.488649482516294,3.5362257779623647,1015.6708012327913
427,8.789909910359015,-3.9577328216855374,0.6594626673483682,-0.08130788779923787,0.011149466114950164,-0.03652304352558081,-0.2258349980859418,-0.8540566307527647,0.23315054434551677,-34.309454036441906,30.987186637861953,3.391746978747585,1015.6674966191176
428,9.051783031887155,-4.070401947181959,0.6765353396824869,-0.09241358522078005,0.025003051593297305,0.1046492220322515,0.05948262609179797,-0.9010996722029879,0.18416890435973177,-34.06786012318552,31.28059785851861,3.108367696709797,1015.6649613059669
429,9.167377716397656,-4.146588745145796,0.778432980463268,-0.06064860137986242,-0.0271906303681152,0.042109054060701576,0.2228678277259446,-0.8443554870837542,0.2664916510136595,-33.45648683331344,31.775101102331824,2.976039031365164,1015.6631109234129
430,9.195387057711176,-4.174381709956756,0.7300250381835062,-0.0879184578702353,-0.027190803849873494,-0.06510858259506891,0.22986519521100438,-0.8971850305334955,0.24901939914738894,-33.63921999412316,31.6931368477276,2.889710097934763,1015.6632134683857
431,8.952718689604573,-4.0796856187048,0.7315126307584494,-0.08063431492177571,-0.01676722198710072,-0.0718467300570297,-0.08353213124175365,-0.9502905186938809,0.2548429355520009,-34.20386959473017,31.072623658562197,2.9758730950296512,1015.6647413453827
432,8.919616135798949,-4.051602809776387,0.6946719987998388,-0.08681579571636486,0.0038070421775945225,0.04715033185540722,-0.09741120543536497,-0.9749546661392242,0.1682497843694808,-34.39857487438106,30.934797495012873,2.8556539140033546,1015.668741995417
433,9.061491736383266,-4.108113775260914,0.7589439699804438,-0.07738084190086728,0.010337973939017541,0.11111075303750284,0.09866871638668143,-0.898409559904596,0.178217567048031,-33.88169330383902,31.394689272913773,2.6769356414669065,1015.6760313515639
434,9.107948931416471,-3.798085688994768,0.6530702245443573,-0.055050738729834056,-0.02084051428459503,-0.05709438566937913,0.07547963002921376,-0.7749423584991948,0.1924106220083711,-34.5266943537351,30.735114919214674,3.323180251458185,1015.6873494510832
435,9.221476216635388,-3.183022781822534,0.4610225258712757,-0.04539800123554501,-0.02038592204049174,-0.05075012229189934,-0.0005758374611485734,-0.6230814550602651,0.11448628567474371,-36.186990844124956,29.148257781058224,3.8079702437504337,1015.7015665700262
436,9.308991425516158,-2.7347187776503805,0.298036836168713,-0.03728434746313186,-0.011082059545217895,-0.03812897253407235,-0.04610371610745638,-0.5123824524248762,0.04736206187315513,-37.39621261253531,28.067251080826004,4.148048428931906,1015.7170750035287
437,9.4612852778423,-2.371141995262879,0.18008806492507679,-0.015995744616358706,-0.0730486072515862,-0.06024178013307939,0.007523297445748853,-0.39938836158620467,0.1952613683684023,-38.27715256493874,27.21464617569593,5.449307639576906,1015.7283937373842
438,9.306245264474962,-2.7869021921624655,0.23598215164660205,0.09177414739833738,-0.06891450783620406,-0.0020665354293780067,-0.02822920654887269,-0.6883735340610975,0.7563787293359481,-37.802644216785495,27.49113851543788,6.246064060497323,1015.7342432306309
439,9.424585675170794,-3.110666651474879,0.37197051084490973,0.19632428846762284,-0.08674923106487786,0.029938330423881172,0.22445588272881195,-0.8044868156364867,1.3769298554859488,-37.89976648997777,26.98108643557346,5.1067181707763165,1015.7307832777191
440,9.394604435058774,-3.373024857759386,0.49507674418379705,0.23363407307225542,-0.044725984325542374,0.0382600673754146,0.28636948280494917,-0.7976348443712087,1.5161469038875968,-38.554780182700284,24.79053212044955,1.402575985187152,1015.7216621886663
441,9.392075938330729,-3.5054420469508067,0.540977669075571,0.12578438489141555,-0.03348055452819594,0.035154678003750967,0.33526282759415105,-0.6861686879017654,1.0775684798471148,-38.44347350663047,22.481320822449344,-3.671445830364614,1015.704947032556
442,9.325597479037423,-3.6614452437977194,0.558726592017113,0.06011367351220248,-0.04908541888742849,-0.010934103760436277,0.32743865732436866,-0.6996644591349999,0.7829200072062825,-38.263310545181,21.121621990312605,-7.214137721740302,1015.6858221252099
443,9.334303312096822,-3.6956726648441407,0.534070426658696,0.019310029270598605,-0.07368085982602379,-0.055124560780913184,0.32634093908632444,-0.6466654337253093,0.6017133821170364,-38.37932267861182,20.16003552754459,-9.462203255851954,1015.6698029086446
444,9.224195327066395,-3.731283854165899,0.5994538177269589,-0.018614079714306682,-0.07026584944975398,-0.11287426774922765,0.20358056573489827,-0.7247551792828754,0.5855961795072031,-38.80398061198544,18.901758939572677,-10.924097712737225,1015.653144020676
445,8.906394935360334,-3.697581144248401,0.5951240079373027,-0.016892241510863402,0.016350611887812255,-0.04189216408497387,-0.15020394275245239,-0.7864173823783404,0.3853049514500908,-39.04276300806276,17.32890487304033,-12.65756733237795,1015.6335036584871
446,9.124993820457437,-3.903931267515265,0.6493056353959473,-0.056087415472835585,0.019042312794196787,0.08915520037897925,0.11134124964004091,-0.880885324481529,0.24704569982295427,-38.706752400494175,17.049107244865045,-14.150719706743242,1015.614140169185
447,9.206879612795746,-4.105561391864912,0.8434457637914708,-0.045270059461288495,-0.030020648944554956,0.03733579845227479,0.2819678982611855,-0.8917459819798232,0.24757015837757324,-38.19574710035066,17.157776529901376,-15.277180499674927,1015.5949787538392
448,9.177605733483052,-4.194591572766311,0.7953979753984602,-0.07090167994151203,-0.040155199954935814,-0.050919869414500746,0.24424256989592527,-0.9435365316844582,0.17387567588125746,-38.44535612189795,16.774033869660965,-15.70730318449351,1015.5729554157931
449,8.996617633537008,-4.240074051091983,0.7836581305660114,-0.11103083225893567,-0.03062136969578747,-0.08936493045814639,0.071551626134704,-1.0242348242892907,0.09283062024515622,-38.40895124180244,16.5888061001595,-16.29431730707697,1015.5474420209711
450,8.757842971669252,-4.176038270686337,0.7074885469334177,-0.09638015715500071,0.0275006819762354,-0.018829354508788226,-0.20021266831250584,-1.0094684956648623,0.013627091245659348,-38.55017638316869,16.40263860322873,-16.469360906949856,1015.5288212282461
451,8.873844639224583,-4.269462964008722,0.6993623617941626,-0.10534999569941308,0.022210341627754107,0.06962554539718087,-0.06410080665723916,-1.0517314845360002,-0.083099927618694,-38.222351328164756,16.568776625752182,-17.004385479477328,1015.5156842804693
452,9.067340158879345,-4.236019804785543,0.7837175550304478,-0.09894669320510503,0.019747525130238374,0.08899806494114174,0.1663473193143538,-0.9272717942009495,0.002453983071614471,-37.8871878437289,16.90594679767965,-17.093169708292766,1015.5133308739371
453,9.064418069077137,-4.320471793627718,0.7929503130645621,-0.08015180886138783,-0.060269395025263864,0.014897661206948493,0.20123141876693607,-0.9159986730150196,0.029065666453795866,-37.7916888075458,17.357675090748277,-17.13812360653046,1015.5116132547987
454,9.0347665257493,-4.418329338406054,0.7505431265835483,-0.11133747463339473,-0.05155598905873418,-0.06513752762129674,0.16859074227956353,-0.9876282045202001,0.09555894543611732,-38.10425736118537,17.485611815845285,-16.694116626066663,1015.5092055538031
455,8.863620395447702,-4.403094949794576,0.7246285504951125,-0.10000613912331031,-0.02098788092773498,-0.08290570386471206,-0.00862499323888652,-1.0387571603934107,0.07856825358785349,-38.351605372552015,17.101442163839447,-16.713538443674377,1015.5073864424152
456,8.68106417940829,-4.337202760491225,0.7243502137210509,-0.08791730894717856,0.022326714534887653,-0.021557412499894527,-0.21769529291546283,-1.0031408649437255,0.04891283428881548,-38.39235860429106,16.871307877093795,-16.85753677110418,1015.5060587752688
457,8.744298120855461,-4.405640006662858,0.66669940806782,-0.09359915434819928,0.0376310248225552,0.044101037754608316,-0.1277222009590458,-1.0287070520562331,-0.021842438193764156,-38.30301551991626,16.989675398468293,-16.959830694089085,1015.5050897856494
458,8.802824900792269,-4.4453833612550415,0.7287606307603194,-0.11127249995169919,0.057220585444260036,0.10124493211164512,0.004916891504648496,-0.9751703717920845,-0.02852067957383592,-37.83764875870154,17.363201068556588,-17.333838377432713,1015.5102360492375
459,8.949572121367373,-4.4852364408646075,0.7919516531470492,-0.09663533901973917,0.02104179978155766,0.07820798905015335,0.170751683240688,-0.8937277723726745,-0.006075425984941377,-37.43452969835764,17.843660118310456,-17.50133526212157,1015.5239680761852
460,8.909808223887866,-4.5447698042862354,0.8294837208403433,-0.08934419266513527,-0.02249249005617096,0.014607369448170399,0.15766630508912963,-0.8528528972114924,0.0010779879141946244,-37.153110993511255,18.402400613176642,-17.54287265453787,1015.5392048659528
461,8.943568529143926,-4.523753830445653,0.8073484024821698,-0.09364789776115431,-0.039070535605234796,-0.06858952724633659,0.15911609719033895,-0.8678330384680334,0.16270471045648308,-37.63196088292207,18.240910173739056,-16.950850738813642,1015.5533346123598
462,8.828615585450482,-4.486453101918077,0.8339231693180772,-0.0759951261226297,-0.0020054168903094957,-0.09430055210290861,0.02368503829000232,-0.9406804862255418,0.1259605159997257,-37.88463036507094,17.35521598466628,-17.331664091008623,1015.566285465568
463,8.623137976160967,-4.368357907320164,0.7998866400692406,-0.10541995596967256,0.03207862277818023,-0.036694212210752294,-0.2045385068354661,-0.9013294587988046,-0.028925318163206926,-37.72682211284215,17.004059816189763,-17.85476090816073,1015.5762734201791
464,8.712543182473103,-4.44645976059126,0.8174143935489682,-0.09781886868579855,0.022816452232292558,0.07831413105530367,-0.10333197040178509,-0.9272152304013334,0.01910522138938449,-37.60199602172866,17.4469930535772,-17.78856553672599,1015.5840989216543
465,8.950015864172176,-4.4903006688931795,0.9211660078428563,-0.08192515318819146,0.013050065980309718,0.08133265466861826,0.18109045625344083,-0.8629977054003045,0.12659098420991538,-37.18383537363304,17.760523493251473,-17.722257014309218,1015.5900575082289
466,8.913365283010723,-4.582741410096484,0.9415871772180053,-0.06916993042968748,-0.022893366026602812,0.002975760909666808,0.1624152789446907,-0.9179207857814454,0.12965230815777484,-37.189652092965325,17.524667938489284,-17.817542441789858,1015.5962820402054
467,8.92472935121279,-4.562158523205232,0.8709759908461175,-0.12334282679130454,-0.019875580689239253,-0.07373802806171341,0.14676766900135804,-0.9298711289867984,0.10554619625037374,-36.67684819048117,16.90514599031123,-17.737103769780457,1015.6033601220947
468,8.768696891518864,-4.481913795853607,0.8693309453763254,-0.06628135202748044,-0.023529873027429517,-0.08664990029414804,-0.04670219035080411,-0.9648269376117445,0.22161112817392722,-36.71048092820813,16.75587183680794,-17.146485664541537,1015.6089382745728
469,8.630701563160038,-4.3917381210626205,0.7884623181500109,-0.10687350030032143,0.04909873841666896,-0.015995737656473344,-0.22061818833259958,-0.9307165191034936,0.05045780422541821,-36.68004786453225,16.415731232949824,-17.571721470047827,1015.6130094545082
470,8.74844606490064,-4.442907309361626,0.7899667744646358,-0.0909580331735425,0.013002660296920696,0.07852152770818123,-0.08488311378936167,-0.9237640196807857,0.0894457306767581,-36.623478767967995,16.741266769986286,-17.47059551380489,1015.615053333619
471,8.917479382291605,-4.506116587039642,0.8175756488511725,-0.07027112705814932,0.009342835555570047,0.09934239452728082,0.14684499429458484,-0.8583896122487422,0.18151100348342236,-36.77510561307593,17.228438470970474,-17.161717017554945,1015.6111654254447
472,8.909391143671963,-4.579914036675442,0.8393506669016537,-0.0753071310678922,-0.03411761791955651,0.0246323971676774,0.17241085034864817,-0.8358491141299165,0.17941630856585156,-36.864001500308234,17.44938322821232,-17.363586301241195,1015.6002896318869
